pressure [db]	time [yyyymmddhhmmssmmm]	chloro fluo [mg chl m-3]	conductivity [ms cm-1]	cpar [%]	depth [m]	fcdom [ppb qse]	in situ density anomaly [kg m-3]	nitrate [umol l-1]	oxygen [umol kg-1]	oxygen [ml l-1]	par [umol m-2 s-1]	potential density anomaly [kg m-3]	potential temperature [degc]	practical salinity [psu]	qc flag	spar [umol m-2 s-1]	temperature [degc]	angular scattering coef at 117° 470 nm [m-1 sr-1]	bbp470 [m-1]	beam transmission 660 nm [%]	beam attenuation coef 660 nm [m-1]	nitrate isus [µmol/l]	oxygen  [ml/l]	oxygen  [umol/kg]	oxygen per sat [µmol/kg]	par ratio [%]	part backscattering coef 470 nm [m-1]	ph	time [second]
5.0		1.3208	4.333141		4.937						28.737		14.851	35.5109	0		14.8517			88.733									
6.0		1.3459	4.333037		5.951						22.323		14.8491	35.5112	0		14.85			88.8463									
7.0		1.398	4.332713		6.945						17.4		14.8456	35.5109	0		14.8467			88.8857									
8.0		1.3457	4.332594		7.939						14.063		14.842	35.5125	0		14.8432			88.9658									
9.0		1.4238	4.331065		8.93						12.11		14.8209	35.5174	0		14.8222			89.2301									
10.0		1.4202	4.336423		9.916						10.545		14.8783	35.5124	0		14.8799			89.1609									
11.0		1.3509	4.335964		10.907						9.5357		14.8737	35.5122	0		14.8754			89.0101									
12.0		1.3498	4.334736		11.898						8.1963		14.8614	35.512	0		14.8632			89.224									
13.0		1.3673	4.338508		12.891						6.6745		14.8999	35.5102	0		14.9018			89.0924									
14.0		1.3696	4.334918		13.881						5.4693		14.863	35.5113	0		14.8651			89.0262									
15.0		1.3907	4.33763		14.861						5.8155		14.8888	35.5116	0		14.891			88.9708									
16.0		1.4362	4.333985		15.861						4.9317		14.8558	35.509	0		14.8583			88.9925									
17.0		1.3868	4.30743		16.862						3.8295		14.5741	35.5275	0		14.5767			89.0715									
18.0		1.3448	4.316851		17.856						2.9994		14.6722	35.5208	0		14.6749			89.7906									
19.0		1.3854	4.32027		18.841						2.9834		14.7052	35.52	0		14.708			90.1461									
20.0		1.3734	4.320964		19.835						2.4146		14.7133	35.5182	0		14.7163			89.7724									
21.0		1.3816	4.311319		20.82						2.0313		14.6045	35.5292	0		14.6077			89.6577									
22.0		1.3921	4.314907		21.811						1.9522		14.6485	35.52	0		14.6517			89.6243									
23.0		1.3371	4.320305		22.808						1.56		14.7034	35.5173	0		14.7068			89.6925									
24.0		1.4006	4.314686		23.788						1.3834		14.6496	35.5167	0		14.6531			89.9111									
25.0		1.33	4.279384		24.79						1.2103		14.2768	35.5398	0		14.2804			90.2272									
26.0		1.3235	4.300242		25.781						0.99578		14.4958	35.5234	0		14.4997			91.0968									
27.0		1.2619	4.306178		26.769						0.78365		14.5528	35.523	0		14.5568			91.0003									
28.0		1.2833	4.308292		27.763						0.71869		14.5728	35.5232	0		14.577			90.632									
29.0		1.2593	4.314878		28.753						0.69363		14.642	35.5187	0		14.6463			90.294									
30.0		1.2812	4.304121		29.738						0.51699		14.5306	35.5239	0		14.5351			90.2461									
31.0		1.2591	4.298791		30.735						0.47835		14.4789	35.5227	0		14.4835			90.22									
32.0		1.2606	4.247042		31.735						0.39569		13.951	35.5402	0		13.9556			90.3795									
33.0		1.2036	4.241947		32.716						0.33815		13.8848	35.5493	0		13.8895			91.3357									
34.0		1.2443	4.234375		33.71						0.2666		13.8127	35.5418	0		13.8175			92.3167									
35.0		1.1363	4.237071		34.695						0.23657		13.8472	35.5328	0		13.8522			93.1117									
36.0		1.1015	4.192815		35.695						0.21041		13.3882	35.5521	0		13.3932			93.4998									
37.0		0.8445	4.187528		36.689						0.17255		13.334	35.5499	0		13.3392			94.3612									
38.0		0.6817	4.189925		37.668						0.13823		13.3555	35.5451	0		13.3608			95.7839									
39.0		0.7329	4.186613		38.665						0.13438		13.3208	35.5452	0		13.3263			95.5597									
40.0		0.7218	4.185923		39.663						0.11199		13.3126	35.5449	0		13.3182			95.7305									
41.0		0.6548	4.185509		40.65						0.090963		13.3065	35.5439	0		13.3122			95.9323									
42.0		0.6322	4.184821		41.644						0.085802		13.298	35.5437	0		13.3039			96.0685									
43.0		0.5956	4.183952		42.64						0.062919		13.2888	35.5432	0		13.2948			96.2193									
44.0		0.497	4.183293		43.618						0.054317		13.2811	35.5425	0		13.2873			96.5979									
45.0		0.4492	4.179418		44.612						0.04678		13.2444	35.54	0		13.2507			96.6577									
46.0		0.4085	4.174602		45.607						0.040339		13.1979	35.5378	0		13.2043			96.9404									
47.0		0.4035	4.170704		46.601						0.031587		13.1581	35.5377	0		13.1646			97.184									
48.0		0.2935	4.165046		47.578						0.022592		13.1036	35.534	0		13.1102			97.6492									
49.0		0.2986	4.1606		48.578						0.016483		13.0602	35.5323	0		13.067			97.6411									
50.0		0.2754	4.159397		49.579						0.01124		13.0478	35.5319	0		13.0546			97.6612									
51.0		0.244	4.157644		50.563						0.004974		13.0303	35.5301	0		13.0373			97.8329									
52.0		0.2231	4.155149		51.552						0.001465		13.0051	35.5294	0		13.0122			97.9076									
53.0		0.2203	4.152708		52.549						0.000779		12.9815	35.5278	0		12.9888			97.9472									
54.0		0.2173	4.149345		53.538						5.1e-05		12.9487	35.5258	0		12.9562			98.0698									
55.0		0.2017	4.146398		54.526						-1e-06		12.92	35.5238	0		12.9275			98.1936									
56.0		0.1852	4.145034		55.521						0.0		12.9054	35.5239	0		12.9131			98.3438									
57.0		0.1857	4.143826		56.512						0.0		12.8915	35.5245	0		12.8993			98.4327									
58.0		0.1755	4.142995		57.494						0.0		12.8824	35.5235	0		12.8903			98.5293									
59.0		0.1561	4.141779		58.491						0.0		12.8691	35.5239	0		12.8771			98.5642									
60.0		0.1529	4.141362		59.492						0.0		12.8636	35.5245	0		12.8718			98.5259									
61.0		0.1456	4.139797		60.479						0.0		12.846	35.5255	0		12.8543			98.5491									
62.0		0.1422	4.132824		61.462						0.0		12.7777	35.5235	0		12.7862			98.6338									
63.0		0.1291	4.126832		62.461						0.0		12.7152	35.5251	0		12.7238			98.7607									
64.0		0.1144	4.125989		63.442						0.0		12.7022	35.5275	0		12.7108			98.8277									
65.0		0.1142	4.125218		64.442						0.0		12.6924	35.5286	0		12.7012			98.8218									
66.0		0.116	4.125277		65.432						0.0		12.6922	35.5283	0		12.7011			98.8189									
67.0		0.1128	4.124789		66.412						0.0		12.6865	35.5279	0		12.6956			98.8418									
68.0		0.1059	4.117482		67.414						0.0		12.615	35.5263	0		12.6242			98.8522									
69.0		0.1016	4.109937		68.415						0.0		12.5391	35.5262	0		12.5483			98.8826									
70.0		0.0998	4.106852		69.403						0.0		12.5084	35.5242	0		12.5178			98.9319									
71.0		0.0994	4.102383		70.385						0.0		12.4634	35.5226	0		12.4729			99.0278									
72.0		0.0884	4.098917		71.379						0.0		12.4283	35.5219	0		12.4379			99.0575									
73.0		0.089	4.091889		72.371						0.0		12.3596	35.5186	0		12.3693			99.0818									
74.0		0.0874	4.089498		73.366						0.0		12.3357	35.5175	0		12.3455			99.0973									
75.0		0.0853	4.087445		74.362						0.0		12.3135	35.518	0		12.3235			99.1222									
76.0		0.0757	4.086298		75.34						0.0		12.3007	35.5168	0		12.3108			99.1861									
77.0		0.0729	4.085899		76.335						0.0		12.296	35.5167	0		12.3062			99.166									
78.0		0.0696	4.084608		77.331						0.0		12.2823	35.5165	0		12.2927			99.1612									
79.0		0.0722	4.082397		78.317						0.0		12.2597	35.5158	0		12.2701			99.2284									
80.0		0.0632	4.081767		79.307						0.0		12.2525	35.5158	0		12.2631			99.1524									
81.0		0.0636	4.080691		80.313						0.0		12.2417	35.5152	0		12.2525			99.2013									
82.0		0.0671	4.079528		81.309						0.0		12.2294	35.5149	0		12.2403			99.2376									
83.0		0.0752	4.078937		82.28						0.0		12.2231	35.514	0		12.2341			99.2418									
84.0		0.0715	4.078286		83.281						0.0		12.2162	35.5139	0		12.2273			99.2697									
85.0		0.0653	4.076209		84.273						0.0		12.1951	35.5132	0		12.2064			99.2577									
86.0		0.0603	4.073668		85.258						0.0		12.1699	35.5122	0		12.1812			99.2392									
87.0		0.062	4.072831		86.251						0.0		12.1604	35.5123	0		12.1719			99.2295									
88.0		0.0599	4.071623		87.234						0.0		12.1486	35.5109	0		12.1602			99.2651									
89.0		0.0534	4.067508		88.23						0.0		12.1083	35.5092	0		12.12			99.2958									
90.0		0.0567	4.066385		89.234						0.0		12.0964	35.509	0		12.1083			99.3156									
91.0		0.0616	4.065404		90.211						0.0		12.086	35.5083	0		12.098			99.3692									
92.0		0.0547	4.064125		91.189						0.0		12.0729	35.5076	0		12.0849			99.4117									
93.0		0.0511	4.063079		92.192						0.0		12.0625	35.5069	0		12.0746			99.3605									
94.0		0.0495	4.061967		93.198						0.0		12.0506	35.5069	0		12.0629			99.3759									
95.0		0.0497	4.061463		94.181						0.0		12.0449	35.5064	0		12.0574			99.4014									
96.0		0.0448	4.060964		95.17						0.0		12.0394	35.506	0		12.052			99.4059									
97.0		0.0472	4.060777		96.155						0.0		12.0368	35.5058	0		12.0495			99.398									
98.0		0.0547	4.060098		97.14						0.0		12.0289	35.5061	0		12.0417			99.4									
99.0		0.0537	4.059226		98.139						0.0		12.019	35.5066	0		12.032			99.4403									
100.0		0.0502	4.058904		99.138						0.0		12.015	35.5067	0		12.0281			99.4005									
101.0		0.0464	4.058151		100.12						0.0		12.0068	35.5065	0		12.0201			99.4285									
102.0		0.0444	4.056723		101.113						0.0		11.9903	35.508	0		12.0036			99.4386									
103.0		0.049	4.056945		102.105						0.0		11.989	35.5106	0		12.0025			99.4739									
104.0		0.0484	4.057805		103.092						0.0		11.9946	35.5127	0		12.0083			99.488									
105.0		0.0448	4.057645		104.09						0.0		11.9921	35.513	0		12.0058			99.488									
106.0		0.0396	4.057994		105.083						0.0		11.994	35.514	0		12.0078			99.481									
107.0		0.0434	4.057612		106.067						0.0		11.9897	35.5137	0		12.0037			99.4646									
108.0		0.0452	4.057565		107.061						0.0		11.9883	35.514	0		12.0024			99.4854									
109.0		0.0468	4.057402		108.049						0.0		11.986	35.5141	0		12.0002			99.4978									
110.0		0.0457	4.056837		109.039						0.0		11.9796	35.5142	0		11.994			99.4893									
111.0		0.0424	4.056672		110.029						0.0		11.9768	35.5147	0		11.9913			99.5031									
112.0		0.0394	4.056769		111.016						0.0		11.9765	35.5153	0		11.9911			99.4849									
113.0		0.0399	4.056721		112.017						0.0		11.9748	35.5158	0		11.9896			99.5062									
114.0		0.048	4.056807		113.004						0.0		11.9746	35.5163	0		11.9894			99.482									
115.0		0.0545	4.056929		113.988						0.0		11.9742	35.5172	0		11.9892			99.4626									
116.0		0.0502	4.056857		114.986						0.0		11.9721	35.518	0		11.9872			99.4191									
117.0		0.0469	4.056292		115.992						0.0		11.966	35.5178	0		11.9813			99.4703									
118.0		0.041	4.055371		116.974						0.0		11.956	35.5179	0		11.9714			99.5171									
119.0		0.0396	4.054615		117.957						0.0		11.9473	35.5182	0		11.9628			99.5143									
120.0		0.0423	4.054357		118.95						0.0		11.9442	35.5181	0		11.9598			99.4686									
121.0		0.0517	4.054358		119.935						0.0		11.9426	35.5189	0		11.9584			99.5334									
122.0		0.0424	4.055088		120.935						0.0		11.9464	35.5217	0		11.9623			99.5282									
123.0		0.0324	4.055892		121.92						0.0		11.951	35.5245	0		11.9671			99.5263									
124.0		0.0361	4.056075		122.912						0.0		11.9509	35.5259	0		11.967			99.5761									
125.0		0.0369	4.05616		123.91						0.0		11.9503	35.5267	0		11.9666			99.5661									
126.0		0.0437	4.053726		124.893						0.0		11.9285	35.5236	0		11.9449			99.5561									
127.0		0.0467	4.049379		125.89						0.0		11.89	35.5179	0		11.9065			99.579									
128.0		0.0363	4.046245		126.877						0.0		11.8623	35.5134	0		11.879			99.5596									
129.0		0.0392	4.045788		127.868						0.0		11.8573	35.5131	0		11.874			99.5785									
130.0		0.0422	4.045392		128.862						0.0		11.8515	35.514	0		11.8684			99.5803									
131.0		0.0389	4.045082		129.85						0.0		11.8476	35.5138	0		11.8646			99.5642									
132.0		0.0371	4.045275		130.843						0.0		11.8477	35.5148	0		11.8649			99.5655									
133.0		0.0328	4.045053		131.847						0.0		11.845	35.5147	0		11.8622			99.5687									
134.0		0.0385	4.045379		132.827						0.0		11.8465	35.5156	0		11.8639			99.5712									
135.0		0.0379	4.046452		133.816						0.0		11.8541	35.5178	0		11.8717			99.5711									
136.0		0.0361	4.049455		134.811						0.0		11.8763	35.5249	0		11.894			99.5558									
137.0		0.0388	4.051214		135.796						0.0		11.8893	35.5291	0		11.9071			99.5717									
138.0		0.0303	4.053189		136.779						0.0		11.9012	35.5364	0		11.9191			99.6166									
139.0		0.0322	4.055249		137.779						0.0		11.9155	35.5421	0		11.9336			99.5915									
140.0		0.035	4.056967		138.778						0.0		11.9277	35.5464	0		11.946			99.5933									
141.0		0.0317	4.057184		139.762						0.0		11.9272	35.5488	0		11.9456			99.6102									
142.0		0.0335	4.058393		140.751						0.0		11.933	35.5546	0		11.9516			99.6171									
143.0		0.0314	4.059325		141.745						0.0		11.9386	35.5579	0		11.9572			99.6166									
144.0		0.0295	4.05828		142.732						0.0		11.9289	35.5567	0		11.9477			99.5525									
145.0		0.0307	4.057473		143.72						0.0		11.9213	35.5559	0		11.9402			99.5955									
146.0		0.0312	4.054091		144.713						0.0		11.8913	35.5516	0		11.9103			99.5649									
147.0		0.0321	4.050623		145.704						0.0		11.8609	35.5464	0		11.8801			99.5888									
148.0		0.0327	4.046676		146.689						0.0		11.8263	35.5408	0		11.8455			99.6145									
149.0		0.031	4.046021		147.682						0.0		11.8182	35.5414	0		11.8376			99.6333									
150.0		0.0311	4.047021		148.675						0.0		11.8257	35.5431	0		11.8452			99.6331									
151.0		0.0299	4.045279		149.672						0.0		11.8094	35.5413	0		11.829			99.6122									
152.0		0.0293	4.042133		150.659						0.0		11.7805	35.5376	0		11.8002			99.5587									
153.0		0.0342	4.041052		151.641						0.0		11.7699	35.5366	0		11.7897			99.6157									
154.0		0.0292	4.039767		152.642						0.0		11.7583	35.5347	0		11.7782			99.597									
155.0		0.0286	4.038008		153.646						0.0		11.7421	35.5325	0		11.7621			99.6012									
156.0		0.0351	4.036507		154.634						0.0		11.7276	35.5309	0		11.7477			99.6101									
157.0		0.034	4.034926		155.613						0.0		11.7131	35.5284	0		11.7333			99.594									
158.0		0.0309	4.033746		156.606						0.0		11.7018	35.5272	0		11.7222			99.5913									
159.0		0.031	4.031858		157.603						0.0		11.6842	35.5252	0		11.7047			99.611									
160.0		0.0323	4.028971		158.593						0.0		11.6561	35.5233	0		11.6767			99.6143									
161.0		0.0375	4.027873		159.575						0.0		11.6431	35.524	0		11.6638			99.6212									
162.0		0.0318	4.029105		160.575						0.0		11.6498	35.5288	0		11.6707			99.6303									
163.0		0.0305	4.029488		161.558						0.0		11.6518	35.5297	0		11.6727			99.6116									
164.0		0.0325	4.031643		162.538						0.0		11.6654	35.5367	0		11.6865			99.5911									
165.0		0.0301	4.030924		163.537						0.0		11.6581	35.5361	0		11.6793			99.6107									
166.0		0.0297	4.03052		164.53						0.0		11.6539	35.5356	0		11.6752			99.6171									
167.0		0.0275	4.030704		165.524						0.0		11.6541	35.5366	0		11.6756			99.5989									
168.0		0.033	4.031292		166.511						0.0		11.6576	35.5382	0		11.6793			99.5816									
169.0		0.0301	4.031129		167.491						0.0		11.6537	35.5398	0		11.6755			99.636									
170.0		0.0489	4.030887		168.489						0.0		11.6506	35.54	0		11.6724			99.6228									
171.0		0.0399	4.030679		169.481						0.0		11.648	35.5399	0		11.67			99.6233									
172.0		0.0366	4.03022		170.481						0.0		11.643	35.5396	0		11.6652			99.606									
173.0		0.0386	4.029517		171.466						0.0		11.6361	35.5388	0		11.6583			99.6107									
174.0		0.0393	4.027776		172.451						0.0		11.6201	35.5366	0		11.6425			99.5768									
175.0		0.0281	4.026617		173.437						0.0		11.6086	35.5358	0		11.6311			99.5875									
176.0		0.0298	4.026525		174.432						0.0		11.6057	35.537	0		11.6283			99.5891									
177.0		0.0277	4.02617		175.432						0.0		11.6012	35.5373	0		11.6239			99.6155									
178.0		0.0247	4.026002		176.421						0.0		11.599	35.5371	0		11.6219			99.6167									
179.0		0.0284	4.026035		177.399						0.0		11.5988	35.5368	0		11.6218			99.6126									
180.0		0.0302	4.02565		178.395						0.0		11.5945	35.5366	0		11.6176			99.5498									
181.0		0.0276	4.025224		179.395						0.0		11.5902	35.536	0		11.6134			99.5766									
182.0		0.0247	4.022941		180.38						0.0		11.5684	35.5343	0		11.5917			99.6149									
183.0		0.0278	4.0217		181.37						0.0		11.5565	35.533	0		11.5799			99.6032									
184.0		0.0255	4.018986		182.362						0.0		11.5303	35.5312	0		11.5538			99.6095									
185.0		0.0271	4.018915		183.352						0.0		11.5291	35.5307	0		11.5528			99.6265									
186.0		0.0324	4.018239		184.337						0.0		11.5223	35.5299	0		11.546			99.6408									
187.0		0.0313	4.017201		185.325						0.0		11.5119	35.5291	0		11.5358			99.6153									
188.0		0.0314	4.01701		186.318						0.0		11.5097	35.5287	0		11.5337			99.5831									
189.0		0.0352	4.016618		187.318						0.0		11.5054	35.5284	0		11.5295			99.5555									
190.0		0.0348	4.015912		188.316						0.0		11.4984	35.5276	0		11.5227			99.6181									
191.0		0.0258	4.014988		189.288						0.0		11.4895	35.5262	0		11.5139			99.6438									
192.0		0.0283	4.012951		190.28						0.0		11.4703	35.5244	0		11.4948			99.6419									
193.0		0.0262	4.011585		191.272						0.0		11.4573	35.5229	0		11.4819			99.6321									
194.0		0.026	4.010715		192.27						0.0		11.4487	35.5221	0		11.4735			99.6177									
195.0		0.0322	4.009796		193.27						0.0		11.4393	35.5216	0		11.4641			99.6227									
196.0		0.0287	4.008153		194.25						0.0		11.4232	35.5201	0		11.4481			99.649									
197.0		0.0278	4.00818		195.236						0.0		11.422	35.5206	0		11.4471			99.6143									
198.0		0.0259	4.008426		196.224						0.0		11.4231	35.5213	0		11.4483			99.6085									
199.0		0.0269	4.008301		197.215						0.0		11.4211	35.5214	0		11.4465			99.6171									
200.0		0.0305	4.005547		198.205						0.0		11.3964	35.5178	0		11.4218			99.6172									
201.0		0.0322	4.005003		199.209						0.0		11.3901	35.5179	0		11.4156			99.6283									
202.0		0.0329	4.005226		200.206						0.0		11.3907	35.5187	0		11.4164			99.6217									
203.0		0.0268	4.00525		201.173						0.0		11.3898	35.5189	0		11.4156			99.5915									
204.0		0.0224	4.005064		202.168						0.0		11.3875	35.5186	0		11.4135			99.6355									
205.0		0.0235	4.004702		203.17						0.0		11.3838	35.518	0		11.4099			99.5953									
206.0		0.0249	4.004339		204.161						0.0		11.38	35.5176	0		11.4061			99.6234									
207.0		0.0255	4.004154		205.145						0.0		11.3779	35.5169	0		11.4042			99.638									
208.0		0.0277	4.003509		206.125						0.0		11.3713	35.5163	0		11.3977			99.6321									
209.0		0.0279	4.00206		207.122						0.0		11.3572	35.5152	0		11.3837			99.643									
210.0		0.0254	4.001926		208.115						0.0		11.3553	35.5151	0		11.382			99.6417									
211.0		0.0237	4.001891		209.112						0.0		11.3543	35.5151	0		11.3811			99.6418									
212.0		0.0251	4.001357		210.101						0.0		11.349	35.5144	0		11.3758			99.6199									
213.0		0.0247	4.000026		211.09						0.0		11.3362	35.5131	0		11.3632			99.6356									
214.0		0.0252	3.998599		212.06						0.0		11.323	35.5111	0		11.3501			99.6236									
215.0		0.0266	3.99745		213.063						0.0		11.3122	35.5098	0		11.3394			99.6434									
216.0		0.0244	3.996755		214.058						0.0		11.3054	35.5088	0		11.3328			99.6516									
217.0		0.0258	3.996368		215.061						0.0		11.3015	35.5083	0		11.3289			99.6527									
218.0		0.0241	3.995972		216.055						0.0		11.2975	35.5074	0		11.3251			99.6309									
219.0		0.0287	3.995359		217.024						0.0		11.2911	35.5067	0		11.3188			99.6477									
220.0		0.0288	3.994759		218.026						0.0		11.2849	35.5062	0		11.3127			99.64									
221.0		0.0278	3.994564		219.017						0.0		11.2823	35.5061	0		11.3102			99.6368									
222.0		0.0231	3.994431		219.999						0.0		11.2803	35.506	0		11.3083			99.6219									
223.0		0.0227	3.994458		220.985						0.0		11.2793	35.5065	0		11.3075			99.6393									
224.0		0.0207	3.99441		221.977						0.0		11.277	35.5077	0		11.3052			99.6455									
225.0		0.0196	3.99432		222.971						0.0		11.2743	35.5088	0		11.3027			99.643									
226.0		0.0205	3.994126		223.975						0.0		11.2711	35.5094	0		11.2997			99.6419									
227.0		0.0274	3.994117		224.955						0.0		11.2705	35.5093	0		11.2991			99.6282									
228.0		0.0302	3.99384		225.94						0.0		11.2663	35.51	0		11.2951			99.6549									
229.0		0.0322	3.993648		226.935						0.0		11.2638	35.5098	0		11.2927			99.6254									
230.0		0.0316	3.993456		227.925						0.0		11.2614	35.5097	0		11.2904			99.6552									
231.0		0.0304	3.993199		228.911						0.0		11.2585	35.5094	0		11.2877			99.5775									
232.0		0.0245	3.993101		229.909						0.0		11.257	35.5093	0		11.2863			99.6231									
233.0		0.0211	3.992926		230.905						0.0		11.2547	35.5092	0		11.2841			99.6417									
234.0		0.0247	3.993038		231.883						0.0		11.255	35.5092	0		11.2846			99.6382									
235.0		0.023	3.993091		232.876						0.0		11.2544	35.5098	0		11.2841			99.6151									
236.0		0.0241	3.993858		233.868						0.0		11.2591	35.5122	0		11.2889			99.6079									
237.0		0.0262	3.995411		234.857						0.0		11.2699	35.5162	0		11.2999			99.6304									
238.0		0.0299	3.995873		235.85						0.0		11.2732	35.517	0		11.3033			99.6227									
239.0		0.0256	3.995511		236.847						0.0		11.2696	35.5165	0		11.2998			99.6203									
240.0		0.026	3.994999		237.824						0.0		11.2648	35.5156	0		11.2952			99.6223									
241.0		0.0287	3.994642		238.815						0.0		11.2603	35.516	0		11.2907			99.6065									
242.0		0.0287	3.994785		239.815						0.0		11.2601	35.517	0		11.2907			99.6415									
243.0		0.0376	3.994186		240.804						0.0		11.2538	35.5167	0		11.2845			99.6484									
244.0		0.05	3.993849		241.787						0.0		11.2502	35.5162	0		11.281			99.651									
245.0		0.0385	3.99369		242.779						0.0		11.2481	35.5162	0		11.279			99.6471									
246.0		0.0306	3.99336		243.778						0.0		11.2443	35.516	0		11.2754			99.6528									
247.0		0.0285	3.993539		244.75						0.0		11.2455	35.5159	0		11.2767			99.6535									
248.0		0.0292	3.993246		245.745						0.0		11.2411	35.5168	0		11.2724			99.6667									
249.0		0.0292	3.993413		246.739						0.0		11.2414	35.5176	0		11.2728			99.6473									
250.0		0.0343	3.993381		247.739						0.0		11.2401	35.5179	0		11.2716			99.617									
251.0		0.0281	3.993391		248.73						0.0		11.2395	35.518	0		11.2712			99.6598									
252.0		0.025	3.993384		249.719						0.0		11.239	35.5178	0		11.2708			99.6376									
253.0		0.0239	3.993272		250.696						0.0		11.237	35.518	0		11.269			99.6678									
254.0		0.0256	3.993119		251.69						0.0		11.2351	35.5178	0		11.2672			99.6658									
255.0		0.0243	3.992699		252.679						0.0		11.231	35.5171	0		11.2632			99.6703									
256.0		0.0251	3.99208		253.672						0.0		11.2251	35.5162	0		11.2574			99.6674									
257.0		0.0234	3.991463		254.671						0.0		11.2192	35.5153	0		11.2516			99.6689									
258.0		0.0222	3.991127		255.667						0.0		11.2159	35.5146	0		11.2484			99.6471									
259.0		0.0284	3.990894		256.635						0.0		11.2137	35.5137	0		11.2464			99.5366									
260.0		0.0301	3.988837		257.636						0.0		11.1951	35.5111	0		11.2278			99.6645									
261.0		0.0265	3.988433		258.629						0.0		11.1911	35.5102	0		11.224			99.6678									
262.0		0.0232	3.988288		259.618						0.0		11.1893	35.5099	0		11.2223			99.6898									
263.0		0.0212	3.987482		260.608						0.0		11.1813	35.5092	0		11.2144			99.6544									
264.0		0.0248	3.986642		261.603						0.0		11.173	35.5083	0		11.2062			99.6564									
265.0		0.0262	3.988465		262.575						0.0		11.1891	35.5096	0		11.2224			99.6604									
266.0		0.0246	3.986118		263.569						0.0		11.167	35.5074	0		11.2005			99.6955									
267.0		0.0245	3.985912		264.568						0.0		11.1646	35.5072	0		11.1982			99.6947									
268.0		0.0244	3.985852		265.567						0.0		11.1635	35.507	0		11.1972			99.6629									
269.0		0.0216	3.985759		266.558						0.0		11.1621	35.5068	0		11.196			99.6897									
270.0		0.0216	3.985875		267.538						0.0		11.1627	35.5067	0		11.1967			99.678									
271.0		0.021	3.985913		268.526						0.0		11.1617	35.5073	0		11.1958			99.7045									
272.0		0.0222	3.986759		269.515						0.0		11.1669	35.5099	0		11.2012			99.6937									
273.0		0.0231	3.987062		270.504						0.0		11.1687	35.5106	0		11.2031			99.6925									
274.0		0.0249	3.987095		271.502						0.0		11.1684	35.5107	0		11.2029			99.6935									
275.0		0.0255	3.987275		272.502						0.0		11.1694	35.5108	0		11.2041			99.6961									
276.0		0.0306	3.987265		273.472						0.0		11.1689	35.5107	0		11.2037			99.6912									
277.0		0.0282	3.986909		274.463						0.0		11.1652	35.5103	0		11.2001			99.6761									
278.0		0.0243	3.986773		275.465						0.0		11.163	35.5105	0		11.198			99.6943									
279.0		0.0205	3.987046		276.459						0.0		11.1645	35.5111	0		11.1997			99.6937									
280.0		0.0277	3.987287		277.445						0.0		11.1663	35.5111	0		11.2016			99.6936									
281.0		0.0296	3.98764		278.419						0.0		11.1683	35.5122	0		11.2036			99.7121									
282.0		0.0242	3.988195		279.416						0.0		11.1719	35.5136	0		11.2074			99.6797									
283.0		0.0233	3.988253		280.416						0.0		11.1717	35.5137	0		11.2073			99.6761									
284.0		0.0245	3.987828		281.415						0.0		11.1672	35.5134	0		11.203			99.6751									
285.0		0.0231	3.987711		282.392						0.0		11.165	35.5138	0		11.2009			99.6855									
286.0		0.0223	3.987665		283.379						0.0		11.1638	35.514	0		11.1998			99.6805									
287.0		0.0219	3.987747		284.376						0.0		11.1636	35.5144	0		11.1998			99.6822									
288.0		0.0211	3.987801		285.357						0.0		11.1635	35.5145	0		11.1998			99.7045									
289.0		0.0208	3.987266		286.35						0.0		11.1581	35.5139	0		11.1945			99.6908									
290.0		0.0214	3.986325		287.342						0.0		11.149	35.5129	0		11.1855			99.7105									
291.0		0.0198	3.98612		288.332						0.0		11.1465	35.5128	0		11.1831			99.7023									
292.0		0.0219	3.985713		289.329						0.0		11.1421	35.5124	0		11.1789			99.7025									
293.0		0.0258	3.985842		290.314						0.0		11.1427	35.5124	0		11.1796			99.7136									
294.0		0.0322	3.985326		291.296						0.0		11.1373	35.512	0		11.1742			99.716									
295.0		0.0264	3.985193		292.289						0.0		11.1354	35.5119	0		11.1725			99.6845									
296.0		0.0192	3.98521		293.286						0.0		11.1349	35.5119	0		11.1722			99.7082									
297.0		0.0187	3.985734		294.282						0.0		11.1387	35.5128	0		11.176			99.7103									
298.0		0.0287	3.9859		295.255						0.0		11.1394	35.5132	0		11.1768			99.714									
299.0		0.0254	3.985805		296.247						0.0		11.1377	35.5132	0		11.1754			99.7208									
300.0		0.0219	3.985756		297.243						0.0		11.1361	35.5138	0		11.1739			99.707									
301.0		0.0201	3.985824		298.247						0.0		11.1359	35.5141	0		11.1738			99.6993									
302.0		0.0226	3.985875		299.222						0.0		11.1361	35.5138	0		11.1741			99.7038									
303.0		0.0223	3.985565		300.209						0.0		11.1318	35.5144	0		11.1699			99.7016									
304.0		0.0215	3.985432		301.201						0.0		11.1295	35.5148	0		11.1677			99.6982									
305.0		0.0206	3.985455		302.196						0.0		11.1291	35.5147	0		11.1675			99.7142									
306.0		0.0214	3.985502		303.185						0.0		11.1288	35.5149	0		11.1673			99.7206									
307.0		0.0239	3.985394		304.176						0.0		11.127	35.515	0		11.1657			99.7206									
308.0		0.0271	3.985292		305.168						0.0		11.1254	35.515	0		11.1642			99.7303									
309.0		0.024	3.985164		306.159						0.0		11.1231	35.5154	0		11.162			99.721									
310.0		0.0195	3.985153		307.141						0.0		11.1223	35.5155	0		11.1613			99.7064									
311.0		0.0224	3.985031		308.131						0.0		11.1202	35.5157	0		11.1593			99.7105									
312.0		0.0249	3.984952		309.126						0.0		11.1182	35.5163	0		11.1574			99.7049									
313.0		0.0295	3.985049		310.113						0.0		11.118	35.5169	0		11.1574			99.7349									
314.0		0.03	3.985157		311.103						0.0		11.1184	35.517	0		11.1579			99.7345									
315.0		0.0297	3.985139		312.094						0.0		11.1168	35.5178	0		11.1564			99.7207									
316.0		0.027	3.985095		313.087						0.0		11.1159	35.5176	0		11.1557			99.6762									
317.0		0.0218	3.984901		314.082						0.0		11.1137	35.5173	0		11.1535			99.7015									
318.0		0.0234	3.985047		315.06						0.0		11.1142	35.5176	0		11.1543			99.7209									
319.0		0.0268	3.985286		316.045						0.0		11.1155	35.5181	0		11.1556			99.7217									
320.0		0.0253	3.984904		317.036						0.0		11.1109	35.5183	0		11.1512			99.7161									
321.0		0.0224	3.984767		318.03						0.0		11.1091	35.5181	0		11.1495			99.7205									
322.0		0.0227	3.984711		319.031						0.0		11.108	35.5181	0		11.1485			99.7172									
323.0		0.0236	3.984618		320.03						0.0		11.1065	35.518	0		11.1472			99.7205									
324.0		0.0223	3.984533		321.01						0.0		11.1053	35.5177	0		11.1461			99.7172									
325.0		0.0208	3.985016		321.988						0.0		11.1096	35.5177	0		11.1505			99.6938									
326.0		0.0225	3.984407		322.981						0.0		11.1031	35.5175	0		11.1441			99.7053									
327.0		0.0205	3.984269		323.97						0.0		11.1011	35.5175	0		11.1422			99.7182									
328.0		0.023	3.984263		324.96						0.0		11.1003	35.5176	0		11.1416			99.7206									
329.0		0.0244	3.984295		325.952						0.0		11.1001	35.5175	0		11.1415			99.7101									
330.0		0.0239	3.984333		326.945						0.0		11.0998	35.5176	0		11.1414			99.7012									
331.0		0.0215	3.984224		327.944						0.0		11.098	35.5177	0		11.1396			99.7151									
332.0		0.0214	3.984273		328.932						0.0		11.098	35.5176	0		11.1397			99.6916									
333.0		0.023	3.984558		329.899						0.0		11.1003	35.5175	0		11.1422			99.7143									
334.0		0.021	3.984298		330.897						0.0		11.0968	35.5179	0		11.1388			99.6943									
335.0		0.0222	3.984278		331.892						0.0		11.0959	35.518	0		11.138			99.6947									
336.0		0.0206	3.984324		332.881						0.0		11.0957	35.518	0		11.138			99.6655									
337.0		0.0226	3.984021		333.884						0.0		11.0923	35.5178	0		11.1347			99.682									
338.0		0.024	3.983406		334.871						0.0		11.086	35.5173	0		11.1285			99.7078									
339.0		0.0286	3.982781		335.859						0.0		11.0795	35.5169	0		11.1221			99.7186									
340.0		0.0287	3.98246		336.846						0.0		11.0759	35.5166	0		11.1186			99.7016									
341.0		0.0266	3.982501		337.826						0.0		11.0759	35.5163	0		11.1188			99.6438									
342.0		0.0171	3.981427		338.818						0.0		11.0645	35.5163	0		11.1075			99.7228									
343.0		0.0171	3.981355		339.812						0.0		11.063	35.5165	0		11.106			99.7056									
344.0		0.0219	3.98133		340.801						0.0		11.0622	35.5164	0		11.1054			99.7207									
345.0		0.029	3.98135		341.798						0.0		11.0617	35.5164	0		11.1051			99.7206									
346.0		0.0315	3.98133		342.787						0.0		11.0608	35.5165	0		11.1043			99.7317									
347.0		0.0285	3.981292		343.78						0.0		11.0599	35.5164	0		11.1035			99.7191									
348.0		0.0223	3.981536		344.762						0.0		11.0612	35.5169	0		11.1049			99.7109									
349.0		0.0212	3.981572		345.742						0.0		11.0608	35.517	0		11.1046			99.7229									
350.0		0.0243	3.982268		346.739						0.0		11.065	35.5192	0		11.109			99.7206									
351.0		0.0241	3.982607		347.733						0.0		11.0669	35.5201	0		11.111			99.7206									
352.0		0.0244	3.982687		348.732						0.0		11.0668	35.5204	0		11.111			99.7195									
353.0		0.025	3.982735		349.718						0.0		11.0664	35.5207	0		11.1108			99.7224									
354.0		0.0267	3.982925		350.697						0.0		11.0674	35.5211	0		11.1119			99.7189									
355.0		0.0231	3.983063		351.691						0.0		11.0678	35.5215	0		11.1124			99.7122									
356.0		0.0196	3.983175		352.685						0.0		11.0681	35.5217	0		11.1129			99.7227									
357.0		0.0227	3.983318		353.67						0.0		11.0687	35.522	0		11.1136			99.7465									
358.0		0.0238	3.983496		354.654						0.0		11.0694	35.5224	0		11.1145			99.7207									
359.0		0.0241	3.983547		355.649						0.0		11.069	35.5229	0		11.1141			99.7219									
360.0		0.0235	3.983511		356.639						0.0		11.068	35.5229	0		11.1132			99.7206									
361.0		0.0215	3.983517		357.633						0.0		11.0674	35.523	0		11.1128			99.6973									
362.0		0.0203	3.983505		358.629						0.0		11.0667	35.523	0		11.1122			99.7448									
363.0		0.0215	3.983519		359.616						0.0		11.0663	35.5229	0		11.112			99.7517									
364.0		0.0221	3.983407		360.601						0.0		11.0647	35.5228	0		11.1105			99.7416									
365.0		0.0285	3.98338		361.581						0.0		11.0639	35.5228	0		11.1098			99.7504									
366.0		0.028	3.983072		362.571						0.0		11.0606	35.5225	0		11.1066			99.724									
367.0		0.0258	3.982551		363.562						0.0		11.0552	35.522	0		11.1013			99.7401									
368.0		0.0258	3.982597		364.555						0.0		11.0551	35.522	0		11.1013			99.7257									
369.0		0.0287	3.982504		365.556						0.0		11.0536	35.5219	0		11.1			99.7286									
370.0		0.0272	3.982469		366.557						0.0		11.0529	35.5217	0		11.0994			99.7376									
371.0		0.0202	3.982824		367.526						0.0		11.0558	35.5217	0		11.1025			99.751									
372.0		0.0242	3.982662		368.51						0.0		11.0537	35.5216	0		11.1005			99.6767									
373.0		0.0225	3.982059		369.502						0.0		11.0475	35.5211	0		11.0944			99.75									
374.0		0.021	3.982001		370.492						0.0		11.0464	35.5211	0		11.0934			99.7529									
375.0		0.0175	3.981792		371.492						0.0		11.044	35.5207	0		11.0912			99.7529									
376.0		0.0171	3.981321		372.481						0.0		11.0393	35.5201	0		11.0865			99.7525									
377.0		0.0163	3.981101		373.475						0.0		11.0364	35.5202	0		11.0838			99.7465									
378.0		0.019	3.980809		374.469						0.0		11.0332	35.5199	0		11.0806			99.7464									
379.0		0.0231	3.981104		375.437						0.0		11.0353	35.52	0		11.0829			99.7545									
380.0		0.0227	3.980234		376.424						0.0		11.0268	35.5191	0		11.0746			99.7478									
381.0		0.0227	3.979374		377.419						0.0		11.0181	35.5186	0		11.0659			99.7292									
382.0		0.0241	3.979067		378.415						0.0		11.0149	35.5181	0		11.0628			99.7336									
383.0		0.0236	3.979077		379.411						0.0		11.014	35.5184	0		11.0621			99.7621									
384.0		0.0234	3.979347		380.403						0.0		11.0156	35.519	0		11.0638			99.7451									
385.0		0.0228	3.979455		381.4						0.0		11.0158	35.5192	0		11.0641			99.7471									
386.0		0.022	3.979522		382.371						0.0		11.0158	35.5192	0		11.0642			99.7637									
387.0		0.0177	3.979525		383.355						0.0		11.0154	35.5189	0		11.064			99.7548									
388.0		0.0216	3.979328		384.351						0.0		11.0129	35.5189	0		11.0616			99.7559									
389.0		0.0222	3.979291		385.344						0.0		11.0121	35.5187	0		11.0609			99.7699									
390.0		0.0214	3.979432		386.339						0.0		11.0125	35.5191	0		11.0615			99.7512									
391.0		0.0208	3.979596		387.329						0.0		11.0133	35.5193	0		11.0625			99.7498									
392.0		0.0244	3.979603		388.31						0.0		11.0129	35.5191	0		11.0622			99.7562									
393.0		0.0247	3.979564		389.297						0.0		11.0121	35.519	0		11.0614			99.7629									
394.0		0.0285	3.979217		390.288						0.0		11.0087	35.5183	0		11.0582			99.7534									
395.0		0.0277	3.978871		391.28						0.0		11.0051	35.5178	0		11.0547			99.7488									
396.0		0.0229	3.977842		392.276						0.0		10.9956	35.5163	0		11.0453			99.7505									
397.0		0.0223	3.976692		393.266						0.0		10.9852	35.5146	0		11.035			99.765									
398.0		0.027	3.975709		394.248						0.0		10.9762	35.513	0		11.0261			99.7611									
399.0		0.0237	3.975605		395.236						0.0		10.9746	35.5128	0		11.0246			99.7718									
400.0		0.0196	3.975432		396.23						0.0		10.9721	35.5129	0		11.0222			99.7704									
401.0		0.0236	3.975435		397.22						0.0		10.9712	35.5132	0		11.0215			99.7477									
402.0		0.0222	3.975127		398.207						0.0		10.9678	35.5128	0		11.0182			99.7512									
403.0		0.0239	3.97446		399.2						0.0		10.9611	35.5121	0		11.0116			99.7754									
404.0		0.0267	3.974154		400.189						0.0		10.9575	35.512	0		11.0082			99.7834									
405.0		0.0304	3.974023		401.175						0.0		10.9559	35.5116	0		11.0067			99.7428									
406.0		0.0286	3.973952		402.167						0.0		10.9548	35.5114	0		11.0056			99.765									
407.0		0.0262	3.973864		403.159						0.0		10.9534	35.5112	0		11.0044			99.7864									
408.0		0.0255	3.974503		404.149						0.0		10.9577	35.5127	0		11.0088			99.7608									
409.0		0.021	3.974365		405.133						0.0		10.956	35.5124	0		11.0072			99.772									
410.0		0.0186	3.973545		406.121						0.0		10.9479	35.5116	0		10.9993			99.7644									
411.0		0.0198	3.973396		407.112						0.0		10.946	35.5114	0		10.9974			99.7667									
412.0		0.0206	3.973557		408.103						0.0		10.9465	35.5119	0		10.9981			99.7698									
413.0		0.0222	3.973539		409.097						0.0		10.9452	35.5124	0		10.9969			99.7576									
414.0		0.0233	3.973239		410.089						0.0		10.9417	35.5122	0		10.9935			99.7691									
415.0		0.0232	3.973737		411.072						0.0		10.9448	35.5136	0		10.9967			99.7715									
416.0		0.0215	3.97378		412.062						0.0		10.9442	35.5139	0		10.9963			99.7521									
417.0		0.0231	3.973563		413.053						0.0		10.9417	35.5136	0		10.9939			99.7589									
418.0		0.0188	3.973488		414.042						0.0		10.9405	35.5135	0		10.9928			99.7704									
419.0		0.0193	3.973448		415.032						0.0		10.9396	35.5134	0		10.992			99.7723									
420.0		0.022	3.973231		416.02						0.0		10.937	35.5131	0		10.9896			99.7382									
421.0		0.0212	3.973126		417.016						0.0		10.9357	35.5128	0		10.9884			99.7584									
422.0		0.0232	3.972983		417.997						0.0		10.9341	35.5123	0		10.987			99.7503									
423.0		0.0227	3.972944		418.973						0.0		10.9334	35.5121	0		10.9864			99.7725									
424.0		0.026	3.971772		419.966						0.0		10.9224	35.5106	0		10.9754			99.7775									
425.0		0.028	3.971584		420.963						0.0		10.9202	35.5103	0		10.9734			99.7788									
426.0		0.0256	3.971322		421.947						0.0		10.9174	35.5099	0		10.9707			99.759									
427.0		0.0256	3.971204		422.959						0.0		10.9159	35.5096	0		10.9693			99.7572									
428.0		0.0247	3.970866		423.957						0.0		10.9125	35.509	0		10.966			99.7593									
429.0		0.0234	3.971166		424.944						0.0		10.9142	35.5097	0		10.9678			99.744									
430.0		0.0198	3.972047		425.906						0.0		10.9204	35.5116	0		10.9742			99.7446									
431.0		0.0236	3.972722		426.896						0.0		10.9253	35.5129	0		10.9793			99.7689									
432.0		0.0208	3.972895		427.891						0.0		10.926	35.5133	0		10.9801			99.7662									
433.0		0.0229	3.971951		428.884						0.0		10.9177	35.5116	0		10.9719			99.7723									
434.0		0.021	3.971006		429.875						0.0		10.909	35.5102	0		10.9633			99.7624									
435.0		0.0214	3.970809		430.869						0.0		10.9063	35.5104	0		10.9607			99.7708									
436.0		0.0229	3.971012		431.858						0.0		10.9067	35.5114	0		10.9612			99.7543									
437.0		0.0219	3.970998		432.853						0.0		10.9081	35.5092	0		10.9627			99.7556									
438.0		0.02	3.971535		433.828						0.0		10.9098	35.5123	0		10.9646			99.756									
439.0		0.0158	3.971073		434.806						0.0		10.9053	35.5115	0		10.9602			99.7476									
440.0		0.0176	3.970095		435.809						0.0		10.8951	35.5113	0		10.9502			99.7481									
441.0		0.0199	3.970088		436.798						0.0		10.8945	35.5112	0		10.9497			99.7464									
442.0		0.0213	3.970092		437.796						0.0		10.8942	35.511	0		10.9495			99.7481									
443.0		0.0227	3.969734		438.791						0.0		10.8904	35.5105	0		10.9458			99.7465									
444.0		0.0204	3.969379		439.778						0.0		10.8866	35.5101	0		10.9421			99.5713									
445.0		0.0193	3.969191		440.757						0.0		10.8842	35.5099	0		10.9399			99.7295									
446.0		0.0202	3.969455		441.74						0.0		10.8863	35.5098	0		10.9421			99.7506									
447.0		0.0217	3.967984		442.729						0.0		10.8722	35.5085	0		10.928			99.7412									
448.0		0.0218	3.96772		443.724						0.0		10.8693	35.5081	0		10.9253			99.7506									
449.0		0.0226	3.967423		444.723						0.0		10.8663	35.5075	0		10.9224			99.7599									
450.0		0.0225	3.966902		445.713						0.0		10.861	35.5069	0		10.9172			99.7559									
451.0		0.0182	3.966906		446.689						0.0		10.8605	35.5066	0		10.9168			99.7582									
452.0		0.0168	3.966887		447.676						0.0		10.8598	35.5066	0		10.9162			99.7441									
453.0		0.0155	3.966848		448.67						0.0		10.8587	35.5066	0		10.9153			99.749									
454.0		0.0161	3.966784		449.665						0.0		10.8576	35.5065	0		10.9142			99.7541									
455.0		0.0217	3.966513		450.652						0.0		10.8546	35.5061	0		10.9114			99.7488									
456.0		0.0232	3.966052		451.643						0.0		10.8501	35.5053	0		10.9071			99.7496									
457.0		0.0252	3.96534		452.633						0.0		10.8431	35.5045	0		10.9001			99.7656									
458.0		0.0252	3.965027		453.623						0.0		10.8397	35.5041	0		10.8968			99.7631									
459.0		0.0374	3.964545		454.609						0.0		10.8346	35.5036	0		10.8919			99.7756									
460.0		0.0243	3.963978		455.589						0.0		10.829	35.5028	0		10.8864			99.7854									
461.0		0.0205	3.963508		456.579						0.0		10.8241	35.5024	0		10.8815			99.7583									
462.0		0.0183	3.963414		457.573						0.0		10.8227	35.5022	0		10.8802			99.7751									
463.0		0.0214	3.96329		458.568						0.0		10.8211	35.5019	0		10.8788			99.7768									
464.0		0.0195	3.962759		459.566						0.0		10.8155	35.5015	0		10.8734			99.7899									
465.0		0.0148	3.962663		460.555						0.0		10.8138	35.5016	0		10.8718			99.784									
466.0		0.0224	3.963336		461.528						0.0		10.8197	35.5017	0		10.8778			99.7882									
467.0		0.0261	3.962622		462.514						0.0		10.8119	35.5016	0		10.8701			99.777									
468.0		0.0261	3.962591		463.502						0.0		10.811	35.5017	0		10.8693			99.7944									
469.0		0.0246	3.962428		464.5						0.0		10.809	35.5014	0		10.8674			99.7683									
470.0		0.025	3.962168		465.488						0.0		10.8062	35.501	0		10.8647			99.7636									
471.0		0.0233	3.961946		466.489						0.0		10.8037	35.5006	0		10.8624			99.7737									
472.0		0.0206	3.961627		467.482						0.0		10.8004	35.5001	0		10.8592			99.7712									
473.0		0.0196	3.961103		468.464						0.0		10.7952	35.4994	0		10.8541			99.7741									
474.0		0.0185	3.961035		469.447						0.0		10.7939	35.4993	0		10.8529			99.7822									
475.0		0.0186	3.960826		470.436						0.0		10.7913	35.4991	0		10.8505			99.7871									
476.0		0.0192	3.960644		471.422						0.0		10.7889	35.4991	0		10.8482			99.7934									
477.0		0.0196	3.960038		472.416						0.0		10.7829	35.4983	0		10.8423			99.7818									
478.0		0.0215	3.959824		473.409						0.0		10.7804	35.498	0		10.8399			99.7806									
479.0		0.0231	3.960125		474.393						0.0		10.7818	35.4991	0		10.8414			99.7892									
480.0		0.0197	3.960848		475.382						0.0		10.7868	35.5006	0		10.8466			99.7793									
481.0		0.0218	3.961016		476.375						0.0		10.7875	35.5011	0		10.8474			99.7881									
482.0		0.0205	3.961032		477.366						0.0		10.787	35.5012	0		10.847			99.7759									
483.0		0.0214	3.961338		478.352						0.0		10.7886	35.502	0		10.8488			99.7749									
484.0		0.0193	3.962006		479.339						0.0		10.7935	35.5033	0		10.8538			99.7646									
485.0		0.0219	3.962047		480.328						0.0		10.7932	35.5034	0		10.8536			99.7715									
486.0		0.0212	3.96171		481.315						0.0		10.7898	35.5029	0		10.8503			99.7658									
487.0		0.0217	3.961405		482.304						0.0		10.7865	35.5025	0		10.8472			99.7624									
488.0		0.022	3.961115		483.3						0.0		10.7834	35.5021	0		10.8441			99.757									
489.0		0.0192	3.960933		484.298						0.0		10.7814	35.5017	0		10.8423			99.7636									
490.0		0.0205	3.96124		485.268						0.0		10.7838	35.5017	0		10.8448			99.744									
491.0		0.0227	3.960512		486.249						0.0		10.7767	35.5009	0		10.8378			99.7771									
492.0		0.0233	3.960191		487.246						0.0		10.7733	35.5005	0		10.8346			99.7723									
493.0		0.0236	3.959944		488.237						0.0		10.7705	35.5002	0		10.8319			99.7686									
494.0		0.023	3.959645		489.239						0.0		10.7674	35.4997	0		10.8289			99.7568									
495.0		0.0224	3.959282		490.222						0.0		10.7635	35.4993	0		10.8251			99.7583									
496.0		0.023	3.95877		491.232						0.0		10.7587	35.4983	0		10.8205			99.763									
497.0		0.0223	3.958188		492.21						0.0		10.7531	35.4974	0		10.8149			99.4438									
498.0		0.0203	3.958637		493.177						0.0		10.7564	35.4979	0		10.8184			99.6281									
499.0		0.0199	3.958191		494.171						0.0		10.7521	35.4971	0		10.8142			99.7799									
500.0		0.0185	3.957968		495.167						0.0		10.7495	35.4969	0		10.8116			99.7721									
501.0		0.0191	3.957797		496.153						0.0		10.7475	35.4967	0		10.8098			99.7764									
502.0		0.0259	3.957108		497.151						0.0		10.7406	35.4959	0		10.803			99.7723									
503.0		0.0271	3.957253		498.143						0.0		10.7409	35.4964	0		10.8035			99.7807									
504.0		0.0306	3.95745		499.139						0.0		10.7416	35.4971	0		10.8043			99.792									
505.0		0.027	3.957385		500.12						0.0		10.7406	35.4968	0		10.8034			99.7877									
506.0		0.0197	3.957919		501.092						0.0		10.7456	35.4965	0		10.8085			99.7934									
507.0		0.0171	3.956995		502.089						0.0		10.7354	35.4967	0		10.7985			99.7971									
508.0		0.0177	3.956746		503.083						0.0		10.7321	35.497	0		10.7952			99.7774									
509.0		0.0174	3.956772		504.07						0.0		10.7314	35.4973	0		10.7947			99.7549									
510.0		0.0157	3.956819		505.057						0.0		10.7313	35.4972	0		10.7947			99.756									
511.0		0.0175	3.956836		506.047						0.0		10.7309	35.4972	0		10.7944			99.7928									
512.0		0.0196	3.956824		507.037						0.0		10.73	35.4973	0		10.7937			99.7931									
513.0		0.0192	3.956897		508.025						0.0		10.7299	35.4976	0		10.7937			99.7938									
514.0		0.019	3.956996		509.013						0.0		10.7301	35.4977	0		10.794			99.7789									
515.0		0.0195	3.957114		510.005						0.0		10.7304	35.498	0		10.7944			99.7978									
516.0		0.0175	3.957224		511.0						0.0		10.7306	35.4983	0		10.7948			99.7972									
517.0		0.018	3.957292		511.986						0.0		10.7305	35.4986	0		10.7947			99.7966									
518.0		0.02	3.95729		512.965						0.0		10.7298	35.4987	0		10.7942			99.7949									
519.0		0.0188	3.957177		513.951						0.0		10.7283	35.4984	0		10.7929			99.7947									
520.0		0.0169	3.956295		514.944						0.0		10.7199	35.4973	0		10.7845			99.7734									
521.0		0.0176	3.956042		515.937						0.0		10.7171	35.497	0		10.7819			99.7917									
522.0		0.0183	3.955651		516.934						0.0		10.7131	35.4965	0		10.7779			99.7886									
523.0		0.0181	3.95527		517.928						0.0		10.7092	35.4959	0		10.7741			99.7751									
524.0		0.0201	3.955122		518.905						0.0		10.7071	35.4959	0		10.7721			99.7869									
525.0		0.0193	3.955208		519.885						0.0		10.7072	35.4959	0		10.7725			99.7976									
526.0		0.0186	3.954859		520.88						0.0		10.7035	35.4955	0		10.7688			99.7981									
527.0		0.0175	3.954819		521.88						0.0		10.7023	35.4957	0		10.7678			99.7956									
528.0		0.0196	3.955082		522.869						0.0		10.7038	35.4962	0		10.7695			99.783									
529.0		0.0181	3.955265		523.849						0.0		10.7045	35.4967	0		10.7703			99.7949									
530.0		0.0209	3.955277		524.834						0.0		10.7041	35.4966	0		10.77			99.7805									
531.0		0.0223	3.955347		525.825						0.0		10.704	35.4969	0		10.77			99.7834									
532.0		0.0248	3.955421		526.817						0.0		10.704	35.497	0		10.7702			99.7845									
533.0		0.0258	3.955466		527.816						0.0		10.704	35.4969	0		10.7703			99.7736									
534.0		0.0264	3.955331		528.8						0.0		10.7022	35.4967	0		10.7686			99.7751									
535.0		0.024	3.955084		529.779						0.0		10.6995	35.4964	0		10.7659			99.787									
536.0		0.0197	3.955056		530.767						0.0		10.6986	35.4963	0		10.7652			99.774									
537.0		0.0201	3.954965		531.762						0.0		10.6967	35.4967	0		10.7634			99.7945									
538.0		0.0184	3.955369		532.755						0.0		10.699	35.4979	0		10.7659			99.7688									
539.0		0.016	3.955378		533.747						0.0		10.6984	35.498	0		10.7654			99.7946									
540.0		0.012	3.955295		534.731						0.0		10.6969	35.4982	0		10.764			99.796									
541.0		0.0129	3.955193		535.712						0.0		10.6953	35.4981	0		10.7625			99.7937									
542.0		0.0147	3.954981		536.707						0.0		10.6926	35.4981	0		10.7599			99.7981									
543.0		0.0196	3.954722		537.696						0.0		10.6899	35.4975	0		10.7574			99.7734									
544.0		0.0235	3.954339		538.692						0.0		10.6861	35.4969	0		10.7537			99.786									
545.0		0.0241	3.953854		539.677						0.0		10.6813	35.4962	0		10.7489			99.7862									
546.0		0.0229	3.953517		540.654						0.0		10.6776	35.4959	0		10.7454			99.7971									
547.0		0.0203	3.953825		541.642						0.0		10.6795	35.4964	0		10.7474			99.7773									
548.0		0.0166	3.954022		542.641						0.0		10.6806	35.4967	0		10.7486			99.7573									
549.0		0.0156	3.954088		543.643						0.0		10.6804	35.4969	0		10.7486			99.7811									
550.0		0.0169	3.953687		544.624						0.0		10.6762	35.4965	0		10.7445			99.7885									
551.0		0.0187	3.954038		545.599						0.0		10.6785	35.4971	0		10.747			99.7871									
552.0		0.0185	3.953992		546.593						0.0		10.6769	35.4977	0		10.7454			99.7779									
553.0		0.0176	3.953253		547.582						0.0		10.6697	35.4968	0		10.7383			99.7908									
554.0		0.0178	3.952803		548.578						0.0		10.6652	35.4961	0		10.734			99.798									
555.0		0.0172	3.95246		549.565						0.0		10.6619	35.4955	0		10.7307			99.7929									
556.0		0.0194	3.952234		550.553						0.0		10.6594	35.4951	0		10.7284			99.7943									
557.0		0.0211	3.952125		551.543						0.0		10.6579	35.4948	0		10.7271			99.7924									
558.0		0.0166	3.951876		552.53						0.0		10.6553	35.4942	0		10.7246			99.8038									
559.0		0.017	3.951787		553.522						0.0		10.6539	35.4941	0		10.7233			99.8035									
560.0		0.0169	3.952063		554.51						0.0		10.6552	35.495	0		10.7247			99.7875									
561.0		0.0162	3.95195		555.497						0.0		10.6535	35.4949	0		10.7231			99.7711									
562.0		0.0162	3.953084		556.475						0.0		10.6618	35.4974	0		10.7315			99.7985									
563.0		0.0161	3.954425		557.466						0.0		10.6719	35.5002	0		10.7418			99.7912									
564.0		0.0173	3.954535		558.459						0.0		10.6721	35.5005	0		10.7422			99.7981									
565.0		0.0184	3.954619		559.457						0.0		10.6723	35.5007	0		10.7425			99.7949									
566.0		0.0177	3.954585		560.452						0.0		10.6714	35.5006	0		10.7417			99.7905									
567.0		0.0183	3.954572		561.435						0.0		10.671	35.5004	0		10.7415			99.796									
568.0		0.0172	3.954561		562.405						0.0		10.6705	35.5002	0		10.7411			99.7982									
569.0		0.019	3.954877		563.402						0.0		10.6723	35.5011	0		10.743			99.7954									
570.0		0.0224	3.954903		564.396						0.0		10.672	35.5011	0		10.7428			99.7735									
571.0		0.0206	3.954874		565.393						0.0		10.6713	35.501	0		10.7422			99.7925									
572.0		0.0214	3.954435		566.382						0.0		10.6669	35.5004	0		10.7379			99.7831									
573.0		0.022	3.954543		567.357						0.0		10.6669	35.5009	0		10.7381			99.7984									
574.0		0.0257	3.954867		568.342						0.0		10.6688	35.5017	0		10.7402			99.7945									
575.0		0.0201	3.954797		569.337						0.0		10.6671	35.502	0		10.7386			99.7954									
576.0		0.0191	3.954781		570.331						0.0		10.6665	35.502	0		10.7381			99.7981									
577.0		0.0195	3.954548		571.325						0.0		10.6641	35.5014	0		10.7358			99.7837									
578.0		0.0227	3.954107		572.306						0.0		10.6599	35.5006	0		10.7317			99.7832									
579.0		0.0206	3.953893		573.292						0.0		10.6575	35.5003	0		10.7294			99.8017									
580.0		0.016	3.953785		574.287						0.0		10.6562	35.4998	0		10.7283			99.8151									
581.0		0.0198	3.95359		575.279						0.0		10.6539	35.4996	0		10.7261			99.8137									
582.0		0.0148	3.953522		576.261						0.0		10.6528	35.4994	0		10.7251			99.8096									
583.0		0.0144	3.953564		577.242						0.0		10.6526	35.4995	0		10.725			99.8217									
584.0		0.0165	3.954598		578.231						0.0		10.6601	35.5018	0		10.7326			99.8114									
585.0		0.0198	3.955233		579.223						0.0		10.6647	35.5029	0		10.7374			99.7978									
586.0		0.0218	3.955322		580.212						0.0		10.6649	35.5031	0		10.7378			99.8019									
587.0		0.0216	3.95529		581.204						0.0		10.6642	35.5029	0		10.7372			99.7981									
588.0		0.0221	3.955117		582.194						0.0		10.6622	35.5026	0		10.7353			99.8001									
589.0		0.0215	3.956115		583.186						0.0		10.6692	35.5051	0		10.7424			99.7896									
590.0		0.0202	3.956748		584.186						0.0		10.6737	35.5064	0		10.7471			99.7963									
591.0		0.0211	3.956599		585.174						0.0		10.6719	35.5062	0		10.7454			99.7979									
592.0		0.0187	3.955977		586.139						0.0		10.6672	35.5042	0		10.7408			99.7826									
593.0		0.0219	3.955993		587.121						0.0		10.666	35.505	0		10.7398			99.7807									
594.0		0.019	3.954062		588.12						0.0		10.6483	35.5026	0		10.7221			99.7963									
595.0		0.018	3.95377		589.109						0.0		10.6451	35.5024	0		10.719			99.7981									
596.0		0.0163	3.953744		590.106						0.0		10.6443	35.5022	0		10.7184			99.7981									
597.0		0.0169	3.953754		591.087						0.0		10.6439	35.5021	0		10.7181			99.7981									
598.0		0.0172	3.953835		592.084						0.0		10.6441	35.5022	0		10.7184			99.7981									
599.0		0.0173	3.953889		593.084						0.0		10.644	35.5021	0		10.7185			99.7981									
600.0		0.018	3.953963		594.077						0.0		10.6442	35.5021	0		10.7188			99.7981									
601.0		0.0188	3.954128		595.053						0.0		10.6452	35.5021	0		10.7199			99.799									
602.0		0.0223	3.954329		596.025						0.0		10.6467	35.5021	0		10.7215			99.8002									
603.0		0.0201	3.953306		597.016						0.0		10.6366	35.5013	0		10.7115			99.798									
604.0		0.0185	3.951402		598.0						0.0		10.6191	35.499	0		10.6941			99.7965									
605.0		0.0189	3.951006		598.991						0.0		10.6151	35.4984	0		10.6901			99.7941									
606.0		0.0177	3.951013		599.988						0.0		10.6149	35.4981	0		10.6901			99.7916									
607.0		0.0179	3.950859		600.976						0.0		10.6129	35.4978	0		10.6883			99.8112									
608.0		0.018	3.950759		601.969						0.0		10.6117	35.4975	0		10.6871			99.8194									
609.0		0.0185	3.950488		602.968						0.0		10.6089	35.4968	0		10.6845			99.8239									
610.0		0.0188	3.950128		603.972						0.0		10.6054	35.4961	0		10.6811			99.8191									
611.0		0.0267	3.949851		604.932						0.0		10.6023	35.4956	0		10.6781			99.8109									
612.0		0.0208	3.949677		605.916						0.0		10.6004	35.4951	0		10.6763			99.8024									
613.0		0.0189	3.950302		606.908						0.0		10.6043	35.4969	0		10.6803			99.8133									
614.0		0.0182	3.950139		607.903						0.0		10.6022	35.4967	0		10.6783			99.8083									
615.0		0.017	3.948745		608.888						0.0		10.5892	35.495	0		10.6654			99.8057									
616.0		0.0164	3.948091		609.868						0.0		10.5833	35.4937	0		10.6596			99.799									
617.0		0.0154	3.948069		610.855						0.0		10.5824	35.4937	0		10.6589			99.778									
618.0		0.0161	3.948263		611.849						0.0		10.5835	35.494	0		10.6601			99.8077									
619.0		0.017	3.948325		612.835						0.0		10.5836	35.4938	0		10.6603			99.8142									
620.0		0.0173	3.948402		613.834						0.0		10.5838	35.4938	0		10.6606			99.798									
621.0		0.0163	3.948479		614.83						0.0		10.5838	35.4939	0		10.6608			99.8108									
622.0		0.0165	3.948477		615.825						0.0		10.5834	35.4938	0		10.6605			99.804									
623.0		0.0164	3.948762		616.796						0.0		10.5856	35.4937	0		10.6629			99.8046									
624.0		0.0139	3.94865		617.771						0.0		10.5839	35.4937	0		10.6612			99.8016									
625.0		0.0205	3.948471		618.762						0.0		10.5818	35.4934	0		10.6592			99.798									
626.0		0.026	3.948238		619.753						0.0		10.5795	35.4927	0		10.6571			99.7981									
627.0		0.0284	3.948061		620.752						0.0		10.577	35.4929	0		10.6547			99.8045									
628.0		0.0278	3.948147		621.731						0.0		10.5768	35.4933	0		10.6546			99.8214									
629.0		0.025	3.947565		622.72						0.0		10.5715	35.4923	0		10.6494			99.8216									
630.0		0.0234	3.94598		623.733						0.0		10.5573	35.4898	0		10.6353			99.8194									
631.0		0.0214	3.944833		624.732						0.0		10.5465	35.4886	0		10.6246			99.7989									
632.0		0.021	3.945555		625.699						0.0		10.5524	35.4889	0		10.6306			99.8131									
633.0		0.0206	3.944496		626.674						0.0		10.543	35.4871	0		10.6213			99.8202									
634.0		0.0208	3.941919		627.665						0.0		10.52	35.4836	0		10.5983			99.8194									
635.0		0.0213	3.941167		628.658						0.0		10.5128	35.4825	0		10.5913			99.7986									
636.0		0.0215	3.941244		629.65						0.0		10.5132	35.4821	0		10.5918			99.8204									
637.0		0.0227	3.941328		630.635						0.0		10.5133	35.4822	0		10.592			99.8224									
638.0		0.0222	3.941396		631.624						0.0		10.5133	35.4822	0		10.5921			99.829									
639.0		0.0252	3.941445		632.612						0.0		10.5135	35.4819	0		10.5924			99.8388									
640.0		0.0245	3.941167		633.6						0.0		10.5107	35.4813	0		10.5897			99.8237									
641.0		0.023	3.939407		634.601						0.0		10.4955	35.478	0		10.5747			99.824									
642.0		0.0232	3.937621		635.592						0.0		10.4792	35.4756	0		10.5584			99.8257									
643.0		0.0173	3.93871		636.561						0.0		10.4881	35.4768	0		10.5674			99.8406									
644.0		0.0205	3.936628		637.544						0.0		10.4695	35.4736	0		10.5489			99.8502									
645.0		0.0214	3.936272		638.534						0.0		10.4657	35.4731	0		10.5452			99.8451									
646.0		0.0194	3.93736		639.531						0.0		10.4733	35.4757	0		10.5529			99.8446									
647.0		0.0181	3.93972		640.518						0.0		10.4915	35.4808	0		10.5713			99.8388									
648.0		0.0177	3.940307		641.513						0.0		10.4953	35.4822	0		10.5753			99.8157									
649.0		0.0173	3.940479		642.501						0.0		10.496	35.4827	0		10.5762			99.8188									
650.0		0.0194	3.940402		643.487						0.0		10.4949	35.4825	0		10.5752			99.8089									
651.0		0.0211	3.939434		644.478						0.0		10.486	35.481	0		10.5664			99.7982									
652.0		0.0227	3.938727		645.469						0.0		10.4793	35.48	0		10.5598			99.8049									
653.0		0.0253	3.937918		646.462						0.0		10.472	35.4785	0		10.5526			99.8196									
654.0		0.0232	3.937243		647.439						0.0		10.4657	35.4772	0		10.5464			99.8158									
655.0		0.0193	3.936756		648.415						0.0		10.4612	35.4761	0		10.542			99.8223									
656.0		0.0172	3.935056		649.406						0.0		10.4461	35.4734	0		10.5269			99.8225									
657.0		0.0185	3.935079		650.401						0.0		10.446	35.4731	0		10.5269			99.8258									
658.0		0.0184	3.933882		651.394						0.0		10.4359	35.4706	0		10.5169			99.8258									
659.0		0.0192	3.930809		652.392						0.0		10.4087	35.4662	0		10.4897			99.8241									
660.0		0.0188	3.929962		653.382						0.0		10.4006	35.465	0		10.4817			99.8296									
661.0		0.0142	3.928996		654.358						0.0		10.3914	35.4636	0		10.4726			99.8384									
662.0		0.0177	3.928374		655.341						0.0		10.3853	35.4626	0		10.4666			99.8279									
663.0		0.0182	3.928461		656.332						0.0		10.3851	35.4629	0		10.4665			99.8458									
664.0		0.0166	3.92874		657.318						0.0		10.3868	35.4634	0		10.4683			99.8498									
665.0		0.0189	3.928663		658.315						0.0		10.3856	35.4631	0		10.4672			99.8498									
666.0		0.02	3.927862		659.308						0.0		10.3785	35.4614	0		10.4602			99.8498									
667.0		0.0199	3.925835		660.295						0.0		10.3603	35.4584	0		10.4421			99.8538									
668.0		0.0209	3.924143		661.28						0.0		10.3452	35.4557	0		10.427			99.8515									
669.0		0.0198	3.923614		662.266						0.0		10.3401	35.4545	0		10.422			99.8708									
670.0		0.019	3.923518		663.248						0.0		10.3385	35.4542	0		10.4206			99.8743									
671.0		0.0193	3.923508		664.23						0.0		10.3376	35.4543	0		10.4198			99.8744									
672.0		0.018	3.923685		665.223						0.0		10.3385	35.4546	0		10.4208			99.8741									
673.0		0.0191	3.923681		666.218						0.0		10.3381	35.4542	0		10.4205			99.8723									
674.0		0.0197	3.923468		667.209						0.0		10.3357	35.4539	0		10.4182			99.8738									
675.0		0.0189	3.922642		668.205						0.0		10.3283	35.4524	0		10.411			99.8661									
676.0		0.0179	3.920712		669.195						0.0		10.3111	35.4493	0		10.3937			99.8505									
677.0		0.0201	3.920068		670.176						0.0		10.3048	35.4483	0		10.3876			99.8569									
678.0		0.0206	3.920156		671.157						0.0		10.305	35.4482	0		10.3879			99.8742									
679.0		0.0163	3.916976		672.142						0.0		10.2774	35.443	0		10.3603			99.8717									
680.0		0.0138	3.914353		673.135						0.0		10.2541	35.4389	0		10.337			99.8708									
681.0		0.0137	3.912944		674.124						0.0		10.2415	35.4365	0		10.3245			99.8692									
682.0		0.0153	3.914671		675.113						0.0		10.2542	35.4405	0		10.3373			99.873									
683.0		0.0162	3.916549		676.103						0.0		10.2692	35.4437	0		10.3526			99.8662									
684.0		0.0175	3.917053		677.094						0.0		10.2727	35.4446	0		10.3562			99.8527									
685.0		0.0171	3.916701		678.076						0.0		10.2691	35.444	0		10.3527			99.8523									
686.0		0.0174	3.917332		679.069						0.0		10.2726	35.4462	0		10.3564			99.8498									
687.0		0.0182	3.917664		680.052						0.0		10.2747	35.4468	0		10.3586			99.8498									
688.0		0.0163	3.917503		681.046						0.0		10.2728	35.4465	0		10.3569			99.8498									
689.0		0.0165	3.917529		682.034						0.0		10.2725	35.4465	0		10.3566			99.8351									
690.0		0.0176	3.917345		683.022						0.0		10.2705	35.446	0		10.3547			99.824									
691.0		0.0171	3.916086		684.014						0.0		10.259	35.4441	0		10.3433			99.8254									
692.0		0.0231	3.913872		684.993						0.0		10.2394	35.4406	0		10.3237			99.8397									
693.0		0.0221	3.913122		685.977						0.0		10.233	35.4387	0		10.3175			99.8492									
694.0		0.0158	3.910702		686.962						0.0		10.211	35.4356	0		10.2955			99.8248									
695.0		0.016	3.909927		687.954						0.0		10.2041	35.4339	0		10.2887			99.824									
696.0		0.0202	3.907915		688.948						0.0		10.186	35.431	0		10.2706			99.8333									
697.0		0.0232	3.906562		689.94						0.0		10.1737	35.4288	0		10.2584			99.8536									
698.0		0.0218	3.905801		690.931						0.0		10.1665	35.4276	0		10.2513			99.8498									
699.0		0.0229	3.905173		691.92						0.0		10.1604	35.4267	0		10.2452			99.8569									
700.0		0.0236	3.905025		692.91						0.0		10.1586	35.4261	0		10.2436			99.8672									
701.0		0.0235	3.90535		693.896						0.0		10.1609	35.4262	0		10.246			99.8454									
702.0		0.0256	3.906812		694.862						0.0		10.173	35.428	0		10.2582			99.8718									
703.0		0.0238	3.906077		695.852						0.0		10.1642	35.4287	0		10.2495			99.8759									
704.0		0.0211	3.906552		696.834						0.0		10.1673	35.4296	0		10.2528			99.8757									
705.0		0.0191	3.906999		697.856						0.0		10.1704	35.4305	0		10.2561			99.8757									
706.0		0.0214	3.907176		698.822						0.0		10.1711	35.431	0		10.2569			99.8733									
707.0		0.021	3.90702		699.808						0.0		10.1693	35.4307	0		10.2552			99.8692									
708.0		0.0184	3.904616		700.827						0.0		10.1489	35.4263	0		10.2348			99.8755									
709.0		0.0174	3.899846		701.818						0.0		10.1056	35.4204	0		10.1914			99.8706									
710.0		0.0201	3.901272		702.793						0.0		10.1179	35.4217	0		10.2039			99.8717									
711.0		0.0177	3.902574		703.76						0.0		10.1291	35.4227	0		10.2153			99.8762									
712.0		0.0179	3.901557		704.752						0.0		10.1192	35.4218	0		10.2054			99.8757									
713.0		0.0191	3.900101		705.744						0.0		10.1046	35.4209	0		10.191			99.8757									
714.0		0.0211	3.900256		706.734						0.0		10.1054	35.4211	0		10.1918			99.8757									
715.0		0.0196	3.900051		707.726						0.0		10.1031	35.4206	0		10.1896			99.8831									
716.0		0.0186	3.899125		708.715						0.0		10.0942	35.4195	0		10.1808			99.8773									
717.0		0.0177	3.898048		709.705						0.0		10.0839	35.4181	0		10.1706			99.8784									
718.0		0.0131	3.896773		710.693						0.0		10.072	35.4164	0		10.1588			99.8802									
719.0		0.0125	3.895989		711.678						0.0		10.0646	35.4151	0		10.1515			99.8922									
720.0		0.0164	3.895326		712.664						0.0		10.0583	35.414	0		10.1452			99.8766									
721.0		0.0211	3.892287		713.65						0.0		10.0314	35.4094	0		10.1183			99.8746									
722.0		0.0223	3.88912		714.639						0.0		10.0024	35.4055	0		10.0892			99.8793									
723.0		0.0183	3.888247		715.633						0.0		9.9941	35.4039	0		10.0811			99.8779									
724.0		0.0173	3.886672		716.624						0.0		9.9793	35.4019	0		10.0664			99.8766									
725.0		0.0171	3.886		717.603						0.0		9.9727	35.4008	0		10.0599			99.8772									
726.0		0.0206	3.885015		718.586						0.0		9.9633	35.3992	0		10.0505			99.8799									
727.0		0.022	3.883241		719.572						0.0		9.9465	35.3972	0		10.0337			99.88									
728.0		0.0195	3.882626		720.565						0.0		9.9405	35.3962	0		10.0278			99.8789									
729.0		0.021	3.883272		721.558						0.0		9.9447	35.3978	0		10.0321			99.8774									
730.0		0.0204	3.88462		722.544						0.0		9.9544	35.4011	0		10.042			99.8812									
731.0		0.0176	3.883162		723.537						0.0		9.9412	35.3989	0		10.0289			99.8685									
732.0		0.0158	3.880917		724.531						0.0		9.9208	35.3956	0		10.0085			99.8755									
733.0		0.0167	3.879254		725.527						0.0		9.905	35.3938	0		9.9928			99.8711									
734.0		0.023	3.883628		726.478						0.0		9.9454	35.3964	0		10.0335			99.8189									
735.0		0.0196	3.878398		727.469						0.0		9.8962	35.3921	0		9.9841			99.8765									
736.0		0.0201	3.87628		728.472						0.0		9.8766	35.3894	0		9.9646			99.8793									
737.0		0.0198	3.875186		729.457						0.0		9.8663	35.3879	0		9.9543			99.8822									
738.0		0.021	3.873999		730.448						0.0		9.8548	35.3867	0		9.9429			99.8777									
739.0		0.0224	3.873524		731.436						0.0		9.8498	35.3861	0		9.938			99.8777									
740.0		0.0204	3.873054		732.439						0.0		9.8449	35.3855	0		9.9332			99.8758									
741.0		0.0196	3.87272		733.431						0.0		9.8406	35.3857	0		9.929			99.8757									
742.0		0.02	3.872951		734.415						0.0		9.8419	35.3858	0		9.9304			99.8775									
743.0		0.0203	3.874216		735.381						0.0		9.8536	35.3859	0		9.9423			99.8775									
744.0		0.0191	3.873004		736.372						0.0		9.8407	35.3857	0		9.9295			99.8757									
745.0		0.0207	3.871505		737.362						0.0		9.8256	35.385	0		9.9144			99.8865									
746.0		0.0198	3.87125		738.355						0.0		9.8218	35.3854	0		9.9107			99.8843									
747.0		0.0175	3.870399		739.346						0.0		9.8135	35.3844	0		9.9025			99.8757									
748.0		0.0193	3.869355		740.329						0.0		9.8034	35.3832	0		9.8924			99.8744									
749.0		0.0191	3.868881		741.317						0.0		9.7988	35.3822	0		9.8879			99.8757									
750.0		0.0188	3.868644		742.308						0.0		9.7961	35.3818	0		9.8853			99.8744									
751.0		0.0206	3.868463		743.301						0.0		9.7936	35.3816	0		9.883			99.8768									
752.0		0.0199	3.867068		744.283						0.0		9.7799	35.3805	0		9.8693			99.8802									
753.0		0.0191	3.86553		745.267						0.0		9.765	35.3789	0		9.8545			99.8797									
754.0		0.0163	3.864042		746.252						0.0		9.7511	35.377	0		9.8406			99.8802									
755.0		0.0159	3.862402		747.243						0.0		9.7353	35.3752	0		9.8248			99.8783									
756.0		0.0165	3.859764		748.237						0.0		9.7106	35.3725	0		9.8001			99.8758									
757.0		0.0192	3.858141		749.224						0.0		9.695	35.3707	0		9.7845			99.8757									
758.0		0.0205	3.8561		750.212						0.0		9.6758	35.3682	0		9.7654			99.8736									
759.0		0.0201	3.855617		751.196						0.0		9.6702	35.3679	0		9.7599			99.8747									
760.0		0.0182	3.855771		752.183						0.0		9.6699	35.3689	0		9.7597			99.8757									
761.0		0.0181	3.855954		753.169						0.0		9.6703	35.3695	0		9.7603			99.8757									
762.0		0.0201	3.855946		754.16						0.0		9.6696	35.3694	0		9.7596			99.8757									
763.0		0.0215	3.855848		755.159						0.0		9.6681	35.3691	0		9.7583			99.8757									
764.0		0.0201	3.855218		756.142						0.0		9.6616	35.3684	0		9.7519			99.8757									
765.0		0.0197	3.854789		757.121						0.0		9.6569	35.3679	0		9.7472			99.8619									
766.0		0.0201	3.854754		758.109						0.0		9.6555	35.3682	0		9.7459			99.877									
767.0		0.0214	3.855028		759.099						0.0		9.6563	35.3695	0		9.7468			99.8863									
768.0		0.0192	3.855178		760.088						0.0		9.6565	35.3701	0		9.7472			99.883									
769.0		0.0192	3.855143		761.071						0.0		9.6546	35.371	0		9.7454			99.8757									
770.0		0.0176	3.855466		762.067						0.0		9.6562	35.372	0		9.7472			99.8744									
771.0		0.0183	3.856205		763.05						0.0		9.6606	35.3745	0		9.7517			99.8743									
772.0		0.0216	3.8561		764.034						0.0		9.6575	35.376	0		9.7487			99.8742									
773.0		0.0208	3.855888		765.026						0.0		9.6541	35.3765	0		9.7454			99.8757									
774.0		0.0233	3.855319		766.022						0.0		9.6471	35.3772	0		9.7385			99.8742									
775.0		0.0222	3.854583		767.016						0.0		9.6386	35.3776	0		9.7301			99.8576									
776.0		0.0222	3.854174		767.991						0.0		9.6338	35.3774	0		9.7254			99.874									
777.0		0.022	3.854222		768.971						0.0		9.6337	35.3774	0		9.7254			99.8549									
778.0		0.024	3.852304		769.958						0.0		9.6154	35.3754	0		9.7071			99.8512									
779.0		0.0227	3.853696		770.953						0.0		9.6249	35.3794	0		9.7168			99.8547									
780.0		0.0237	3.854924		771.946						0.0		9.6344	35.3818	0		9.7265			99.8529									
781.0		0.0264	3.855107		772.931						0.0		9.6352	35.3823	0		9.7274			99.8527									
782.0		0.0249	3.854909		773.922						0.0		9.6324	35.3825	0		9.7247			99.8511									
783.0		0.0221	3.854733		774.905						0.0		9.63	35.3825	0		9.7224			99.8498									
784.0		0.0252	3.854643		775.897						0.0		9.6284	35.3826	0		9.7209			99.8498									
785.0		0.0252	3.854549		776.888						0.0		9.6269	35.3825	0		9.7196			99.8464									
786.0		0.0235	3.854051		777.875						0.0		9.621	35.3827	0		9.7138			99.84									
787.0		0.0209	3.853921		778.85						0.0		9.6187	35.383	0		9.7116			99.8508									
788.0		0.0236	3.853324		779.833						0.0		9.612	35.3831	0		9.7049			99.8498									
789.0		0.025	3.852462		780.824						0.0		9.602	35.3837	0		9.695			99.8407									
790.0		0.0207	3.852121		781.816						0.0		9.5977	35.3838	0		9.6909			99.8406									
791.0		0.019	3.851495		782.808						0.0		9.5904	35.3842	0		9.6836			99.8406									
792.0		0.0226	3.851127		783.806						0.0		9.5861	35.3841	0		9.6794			99.8478									
793.0		0.0224	3.850804		784.79						0.0		9.5822	35.3841	0		9.6756			99.8392									
794.0		0.0185	3.85063		785.78						0.0		9.58	35.3838	0		9.6735			99.8397									
795.0		0.0198	3.850396		786.763						0.0		9.577	35.3838	0		9.6706			99.826									
796.0		0.0225	3.850022		787.751						0.0		9.5727	35.3836	0		9.6664			99.8302									
797.0		0.021	3.8499		788.73						0.0		9.5709	35.3834	0		9.6647			99.8376									
798.0		0.0239	3.84981		789.714						0.0		9.5694	35.3833	0		9.6633			99.8502									
799.0		0.0199	3.849744		790.698						0.0		9.5681	35.3833	0		9.6621			99.842									
800.0		0.0179	3.84979		791.695						0.0		9.5679	35.3834	0		9.6621			99.8311									
801.0		0.0148	3.849681		792.683						0.0		9.5663	35.3832	0		9.6606			99.8258									
802.0		0.0129	3.849315		793.681						0.0		9.5615	35.3837	0		9.6559			99.828									
803.0		0.0181	3.847895		794.68						0.0		9.5459	35.3843	0		9.6403			99.8241									
804.0		0.0245	3.848071		795.653						0.0		9.5471	35.3841	0		9.6416			99.824									
805.0		0.0241	3.848147		796.618						0.0		9.5476	35.3836	0		9.6423			99.8389									
806.0		0.0256	3.846507		797.615						0.0		9.5303	35.3837	0		9.625			99.8413									
807.0		0.0265	3.845823		798.597						0.0		9.5226	35.3838	0		9.6174			99.8377									
808.0		0.0276	3.845703		799.599						0.0		9.5212	35.3833	0		9.6162			99.8236									
809.0		0.0269	3.845369		800.595						0.0		9.5176	35.3829	0		9.6126			99.8218									
810.0		0.0252	3.845304		801.588						0.0		9.5167	35.3825	0		9.6118			99.824									
811.0		0.0235	3.844251		802.583						0.0		9.5065	35.3812	0		9.6017			99.8253									
812.0		0.0219	3.842838		803.556						0.0		9.4925	35.3801	0		9.5877			99.8365									
813.0		0.0227	3.84442		804.531						0.0		9.5072	35.3806	0		9.6026			99.8423									
814.0		0.0253	3.842195		805.517						0.0		9.4855	35.3789	0		9.5809			99.8465									
815.0		0.0239	3.840902		806.504						0.0		9.4721	35.3785	0		9.5676			99.8256									
816.0		0.0241	3.840726		807.497						0.0		9.4697	35.3785	0		9.5653			99.824									
817.0		0.0216	3.840269		808.487						0.0		9.4645	35.3783	0		9.5602			99.8203									
818.0		0.0204	3.840026		809.474						0.0		9.4618	35.3781	0		9.5575			99.8018									
819.0		0.0193	3.8385		810.467						0.0		9.4446	35.3789	0		9.5403			99.7999									
820.0		0.0176	3.838164		811.462						0.0		9.4402	35.3793	0		9.5361			99.7981									
821.0		0.0165	3.837887		812.455						0.0		9.4363	35.3796	0		9.5323			99.7991									
822.0		0.0152	3.837454		813.429						0.0		9.4308	35.3798	0		9.5269			99.7933									
823.0		0.0171	3.838031		814.407						0.0		9.4363	35.3792	0		9.5326			99.8									
824.0		0.0195	3.837851		815.399						0.0		9.4306	35.3824	0		9.527			99.7765									
825.0		0.0218	3.838556		816.386						0.0		9.4356	35.384	0		9.532			99.7652									
826.0		0.022	3.841336		817.374						0.0		9.4552	35.3922	0		9.5519			99.7478									
827.0		0.0207	3.845461		818.369						0.0		9.4864	35.4024	0		9.5834			99.7267									
828.0		0.0211	3.846383		819.353						0.0		9.493	35.4046	0		9.5903			99.7189									
829.0		0.0207	3.846743		820.345						0.0		9.4952	35.4058	0		9.5925			99.7206									
830.0		0.018	3.846367		821.335						0.0		9.491	35.4056	0		9.5884			99.7227									
831.0		0.0183	3.846106		822.317						0.0		9.4883	35.4052	0		9.5858			99.7358									
832.0		0.0181	3.845459		823.298						0.0		9.482	35.4044	0		9.5797			99.7297									
833.0		0.0202	3.845294		824.288						0.0		9.4802	35.404	0		9.5779			99.7304									
834.0		0.0231	3.844661		825.278						0.0		9.4735	35.4038	0		9.5713			99.7366									
835.0		0.0231	3.842604		826.273						0.0		9.4521	35.4037	0		9.5499			99.7482									
836.0		0.0185	3.838616		827.254						0.0		9.4157	35.3989	0		9.5134			99.7302									
837.0		0.0176	3.834739		828.234						0.0		9.38	35.3942	0		9.4776			99.7496									
838.0		0.0184	3.829329		829.224						0.0		9.333	35.385	0		9.4304			99.7529									
839.0		0.0184	3.828804		830.213						0.0		9.3274	35.3846	0		9.4249			99.7622									
840.0		0.0191	3.827527		831.204						0.0		9.3164	35.3816	0		9.414			99.7825									
841.0		0.0188	3.82094		832.194						0.0		9.2596	35.371	0		9.3569			99.795									
842.0		0.0197	3.810968		833.183						0.0		9.1694	35.3572	0		9.2663			99.7981									
843.0		0.0204	3.809845		834.169						0.0		9.1593	35.3551	0		9.2562			99.8191									
844.0		0.0206	3.809079		835.157						0.0		9.152	35.3532	0		9.2491			99.8328									
845.0		0.0185	3.804903		836.146						0.0		9.1145	35.3464	0		9.2114			99.8576									
846.0		0.0195	3.799863		837.118						0.0		9.0703	35.3366	0		9.167			99.859									
847.0		0.019	3.796238		838.104						0.0		9.0405	35.3278	0		9.1371			99.8734									
848.0		0.0183	3.790776		839.091						0.0		8.9933	35.3186	0		9.0898			99.874									
849.0		0.0178	3.783417		840.087						0.0		8.926	35.3087	0		9.0222			99.8795									
850.0		0.017	3.780451		841.079						0.0		8.8997	35.3039	0		8.9958			99.8758									
851.0		0.0169	3.774152		842.067						0.0		8.8479	35.2903	0		8.9438			99.8757									
852.0		0.0169	3.760987		843.067						0.0		8.7318	35.2699	0		8.8271			99.8757									
853.0		0.0166	3.745741		844.06						0.0		8.5939	35.249	0		8.6884			99.8757									
854.0		0.0185	3.753217		845.034						0.0		8.6599	35.257	0		8.755			99.8747									
855.0		0.0196	3.75083		846.006						0.0		8.6397	35.2494	0		8.7348			99.8775									
856.0		0.018	3.742933		846.994						0.0		8.5701	35.2365	0		8.6648			99.881									
857.0		0.0198	3.731402		847.988						0.0		8.4648	35.2211	0		8.5589			99.8757									
858.0		0.0197	3.730051		848.976						0.0		8.4515	35.219	0		8.5457			99.8725									
859.0		0.0178	3.729804		849.971						0.0		8.4492	35.2174	0		8.5435			99.874									
860.0		0.0174	3.729667		850.958						0.0		8.4474	35.2163	0		8.5418			99.8699									
861.0		0.016	3.729813		851.943						0.0		8.4477	35.216	0		8.5422			99.8705									
862.0		0.0164	3.731656		852.93						0.0		8.4622	35.2193	0		8.5569			99.8596									
863.0		0.0162	3.733884		853.912						0.0		8.4793	35.224	0		8.5742			99.8746									
864.0		0.016	3.739121		854.902						0.0		8.519	35.2369	0		8.6144			99.8757									
865.0		0.0182	3.748855		855.901						0.0		8.599	35.2571	0		8.695			99.8713									
866.0		0.0187	3.748665		856.881						0.0		8.5989	35.2542	0		8.695			99.8711									
867.0		0.0172	3.746879		857.85						0.0		8.5821	35.252	0		8.6782			99.876									
868.0		0.0165	3.752517		858.838						0.0		8.6268	35.2648	0		8.7233			99.8757									
869.0		0.0175	3.754603		859.831						0.0		8.6435	35.269	0		8.7402			99.8757									
870.0		0.0176	3.756685		860.819						0.0		8.6601	35.2733	0		8.7571			99.839									
871.0		0.0193	3.75752		861.809						0.0		8.6659	35.2757	0		8.763			99.8238									
872.0		0.0206	3.757514		862.811						0.0		8.6641	35.277	0		8.7613			99.8746									
873.0		0.0201	3.756674		863.799						0.0		8.6539	35.2781	0		8.7512			99.8735									
874.0		0.02	3.756031		864.79						0.0		8.6459	35.279	0		8.7433			99.8702									
875.0		0.0209	3.75583		865.784						0.0		8.6432	35.2791	0		8.7407			99.8742									
876.0		0.0219	3.755449		866.757						0.0		8.6387	35.2793	0		8.7363			99.8695									
877.0		0.0165	3.755672		867.734						0.0		8.6439	35.2759	0		8.7416			99.8666									
878.0		0.0215	3.754418		868.711						0.0		8.6281	35.2784	0		8.7258			99.8655									
879.0		0.0251	3.752471		869.704						0.0		8.6067	35.2792	0		8.7044			99.8757									
880.0		0.0231	3.751459		870.687						0.0		8.5965	35.2785	0		8.6942			99.8757									
881.0		0.0209	3.750151		871.685						0.0		8.5834	35.2775	0		8.6811			99.8757									
882.0		0.0208	3.749211		872.667						0.0		8.5738	35.2767	0		8.6717			99.8757									
883.0		0.0223	3.748721		873.664						0.0		8.5684	35.2764	0		8.6664			99.8688									
884.0		0.022	3.748251		874.636						0.0		8.5632	35.2761	0		8.6612			99.8641									
885.0		0.0225	3.747946		875.634						0.0		8.5599	35.2758	0		8.658			99.8496									
886.0		0.023	3.74713		876.663						0.0		8.551	35.2754	0		8.6492			99.8524									
887.0		0.0253	3.747178		877.651						0.0		8.5513	35.2749	0		8.6496			99.854									
888.0		0.0227	3.747593		878.593						0.0		8.5547	35.2748	0		8.6531			99.851									
889.0		0.0207	3.747093		879.588						0.0		8.5495	35.2742	0		8.648			99.8553									
890.0		0.0202	3.746919		880.576						0.0		8.5472	35.274	0		8.6458			99.8553									
891.0		0.02	3.746678		881.556						0.0		8.5444	35.2737	0		8.6431			99.8714									
892.0		0.0228	3.745982		882.545						0.0		8.5375	35.2728	0		8.6363			99.8741									
893.0		0.0227	3.745023		883.523						0.0		8.5282	35.2716	0		8.627			99.8738									
894.0		0.0227	3.743091		884.513						0.0		8.5106	35.2687	0		8.6095			99.8692									
895.0		0.0216	3.739962		885.513						0.0		8.4809	35.2654	0		8.5797			99.8735									
896.0		0.0233	3.737813		886.509						0.0		8.4587	35.2647	0		8.5574			99.8651									
897.0		0.0232	3.737635		887.503						0.0		8.4564	35.2647	0		8.5552			99.8556									
898.0		0.0228	3.737095		888.485						0.0		8.4503	35.264	0		8.5492			99.8539									
899.0		0.0201	3.738444		889.447						0.0		8.4649	35.2622	0		8.564			99.878									
900.0		0.0201	3.729062		890.44						0.0		8.3751	35.2545	0		8.4737			99.8625									
901.0		0.0195	3.72678		891.43						0.0		8.353	35.2523	0		8.4516			99.8842									
902.0		0.0153	3.725946		892.42						0.0		8.3452	35.2505	0		8.4438			99.8723									
903.0		0.0165	3.724748		893.416						0.0		8.3343	35.2482	0		8.433			99.8757									
904.0		0.0201	3.723753		894.395						0.0		8.3244	35.2468	0		8.4232			99.8757									
905.0		0.0196	3.72037		895.388						0.0		8.2936	35.2419	0		8.3922			99.8772									
906.0		0.0174	3.717645		896.372						0.0		8.2673	35.2392	0		8.3659			99.8832									
907.0		0.019	3.714702		897.363						0.0		8.2399	35.2351	0		8.3384			99.8758									
908.0		0.0253	3.71193		898.356						0.0		8.2137	35.2315	0		8.3121			99.8727									
909.0		0.0207	3.709356		899.333						0.0		8.1883	35.2283	0		8.2866			99.8764									
910.0		0.016	3.711922		900.307						0.0		8.2131	35.2289	0		8.3117			99.8833									
911.0		0.0166	3.701728		901.3						0.0		8.1184	35.2165	0		8.2165			99.8988									
912.0		0.0186	3.699436		902.284						0.0		8.0949	35.2157	0		8.193			99.8981									
913.0		0.0179	3.699422		903.275						0.0		8.0929	35.2166	0		8.1911			99.8956									
914.0		0.0193	3.699555		904.27						0.0		8.0923	35.2178	0		8.1906			99.8975									
915.0		0.0207	3.699036		905.265						0.0		8.087	35.2168	0		8.1854			99.8859									
916.0		0.0209	3.698645		906.254						0.0		8.0818	35.2169	0		8.1803			99.8826									
917.0		0.0186	3.700075		907.239						0.0		8.0928	35.2199	0		8.1914			99.8859									
918.0		0.0226	3.702394		908.228						0.0		8.1113	35.2244	0		8.2102			99.8847									
919.0		0.0191	3.704811		909.2						0.0		8.132	35.2276	0		8.2312			99.8766									
920.0		0.0217	3.705046		910.179						0.0		8.1327	35.2283	0		8.232			99.8967									
921.0		0.0237	3.71568		911.168						0.0		8.2149	35.256	0		8.3149			99.8863									
922.0		0.0242	3.719871		912.156						0.0		8.2489	35.265	0		8.3492			99.8831									
923.0		0.023	3.720387		913.15						0.0		8.2524	35.2663	0		8.3529			99.8779									
924.0		0.0198	3.721015		914.142						0.0		8.257	35.2679	0		8.3577			99.8737									
925.0		0.0248	3.721793		915.133						0.0		8.2629	35.2697	0		8.3636			99.8756									
926.0		0.0214	3.722329		916.125						0.0		8.2668	35.2709	0		8.3677			99.8845									
927.0		0.0163	3.723685		917.123						0.0		8.2772	35.2742	0		8.3783			99.8763									
928.0		0.0197	3.723856		918.09						0.0		8.2775	35.2756	0		8.3787			99.876									
929.0		0.0286	3.725115		919.066						0.0		8.2868	35.2795	0		8.3882			99.8766									
930.0		0.0285	3.725584		920.057						0.0		8.289	35.2816	0		8.3905			99.8874									
931.0		0.0245	3.72722		921.045						0.0		8.3008	35.2863	0		8.4026			99.8756									
932.0		0.0235	3.72744		922.032						0.0		8.3005	35.2886	0		8.4024			99.89									
933.0		0.0207	3.727494		923.028						0.0		8.2985	35.2907	0		8.4005			99.8861									
934.0		0.0183	3.727346		924.019						0.0		8.2953	35.292	0		8.3973			99.879									
935.0		0.0195	3.727066		925.005						0.0		8.2911	35.2929	0		8.3933			99.8718									
936.0		0.0164	3.726824		925.992						0.0		8.2876	35.2935	0		8.3898			99.8778									
937.0		0.0206	3.726737		926.974						0.0		8.2856	35.2941	0		8.388			99.88									
938.0		0.0266	3.726446		927.957						0.0		8.2811	35.2952	0		8.3835			99.8831									
939.0		0.023	3.726296		928.943						0.0		8.2776	35.2967	0		8.3801			99.8755									
940.0		0.0298	3.726466		929.929						0.0		8.2778	35.2977	0		8.3804			99.8848									
941.0		0.026	3.726705		930.92						0.0		8.2785	35.2989	0		8.3813			99.8998									
942.0		0.0238	3.726875		931.912						0.0		8.2786	35.3001	0		8.3815			99.9									
943.0		0.0278	3.72692		932.902						0.0		8.2777	35.3009	0		8.3807			99.899									
944.0		0.0284	3.72753		933.885						0.0		8.2795	35.3049	0		8.3827			99.9006									
945.0		0.0282	3.72863		934.867						0.0		8.2854	35.31	0		8.3887			99.9006									
946.0		0.0238	3.728993		935.854						0.0		8.287	35.3115	0		8.3905			99.9004									
947.0		0.0263	3.729372		936.837						0.0		8.2889	35.3132	0		8.3924			99.9015									
948.0		0.0259	3.729543		937.83						0.0		8.2898	35.3135	0		8.3935			99.9015									
949.0		0.0235	3.729689		938.822						0.0		8.2897	35.3146	0		8.3935			99.8987									
950.0		0.0245	3.729111		939.812						0.0		8.2834	35.3143	0		8.3873			99.8803									
951.0		0.02	3.728992		940.79						0.0		8.2818	35.3142	0		8.3858			99.9006									
952.0		0.015	3.728694		941.774						0.0		8.2785	35.3138	0		8.3826			99.9015									
953.0		0.0169	3.728265		942.758						0.0		8.274	35.3134	0		8.3781			99.8972									
954.0		0.022	3.728435		943.749						0.0		8.2752	35.3134	0		8.3794			99.8862									
955.0		0.022	3.728356		944.749						0.0		8.2738	35.3133	0		8.3782			99.8984									
956.0		0.0193	3.72818		945.738						0.0		8.2715	35.3133	0		8.376			99.883									
957.0		0.0194	3.727063		946.715						0.0		8.2596	35.3131	0		8.3641			99.8905									
958.0		0.0199	3.727213		947.691						0.0		8.2607	35.313	0		8.3653			99.8818									
959.0		0.0207	3.725673		948.68						0.0		8.2442	35.3129	0		8.3489			99.9018									
960.0		0.0223	3.725699		949.665						0.0		8.2438	35.313	0		8.3486			99.9015									
961.0		0.0211	3.725597		950.658						0.0		8.2423	35.3129	0		8.3471			99.8791									
962.0		0.0195	3.725333		951.651						0.0		8.2389	35.3129	0		8.3439			99.883									
963.0		0.0168	3.725145		952.645						0.0		8.2364	35.3129	0		8.3414			99.8974									
964.0		0.0162	3.724867		953.638						0.0		8.233	35.3128	0		8.3381			99.9001									
965.0		0.0181	3.723825		954.613						0.0		8.2214	35.3129	0		8.3266			99.8999									
966.0		0.0206	3.723742		955.585						0.0		8.2204	35.3123	0		8.3257			99.9006									
967.0		0.0213	3.721725		956.578						0.0		8.1998	35.3114	0		8.3051			99.9015									
968.0		0.0217	3.721299		957.565						0.0		8.1945	35.3117	0		8.2999			99.9015									
969.0		0.0227	3.721221		958.556						0.0		8.1934	35.3114	0		8.2988			99.9015									
970.0		0.0221	3.720434		959.548						0.0		8.185	35.311	0		8.2905			99.8614									
971.0		0.0211	3.71928		960.535						0.0		8.1729	35.3105	0		8.2785			99.8685									
972.0		0.0184	3.71883		961.521						0.0		8.168	35.3101	0		8.2736			99.8742									
973.0		0.0171	3.718514		962.501						0.0		8.1641	35.31	0		8.2698			99.8825									
974.0		0.0178	3.715689		963.495						0.0		8.1367	35.308	0		8.2424			99.8938									
975.0		0.0182	3.707506		964.488						0.0		8.0557	35.303	0		8.1609			99.8947									
976.0		0.0172	3.706092		965.468						0.0		8.0415	35.3015	0		8.1467			99.89									
977.0		0.0217	3.707897		966.442						0.0		8.058	35.3024	0		8.1634			99.8982									
978.0		0.023	3.701779		967.427						0.0		7.9997	35.2966	0		8.1047			99.8857									
979.0		0.0216	3.699291		968.421						0.0		7.9734	35.2963	0		8.0784			99.8997									
980.0		0.0216	3.699068		969.408						0.0		7.9711	35.2955	0		8.0762			99.8814									
981.0		0.022	3.698199		970.403						0.0		7.9619	35.2949	0		8.067			99.8758									
982.0		0.023	3.698112		971.39						0.0		7.9608	35.2943	0		8.066			99.8776									
983.0		0.0226	3.697456		972.393						0.0		7.9542	35.2932	0		8.0596			99.882									
984.0		0.0189	3.697928		973.371						0.0		7.9581	35.293	0		8.0635			99.8865									
985.0		0.0185	3.699327		974.328						0.0		7.9711	35.2932	0		8.0768			99.9023									
986.0		0.0187	3.696496		975.318						0.0		7.9429	35.2913	0		8.0484			99.8769									
987.0		0.0181	3.6958		976.323						0.0		7.9345	35.292	0		8.0401			99.8842									
988.0		0.0183	3.695457		977.294						0.0		7.931	35.2915	0		8.0367			99.8965									
989.0		0.0186	3.693062		978.283						0.0		7.9059	35.2907	0		8.0116			99.8835									
990.0		0.0186	3.690105		979.287						0.0		7.8772	35.2881	0		7.9828			99.8757									
991.0		0.0199	3.685908		980.299						0.0		7.8378	35.2837	0		7.9432			99.8757									
992.0		0.0187	3.682289		981.284						0.0		7.8024	35.2799	0		7.9077			99.8871									
993.0		0.017	3.683092		982.231						0.0		7.8098	35.2793	0		7.9152			99.8902									
994.0		0.017	3.680718		983.225						0.0		7.7868	35.2775	0		7.8922			99.8742									
995.0		0.0183	3.676893		984.216						0.0		7.7477	35.2755	0		7.8528			99.8874									
996.0		0.0184	3.6764		985.209						0.0		7.7416	35.2759	0		7.8468			99.8996									
997.0		0.0187	3.675794		986.2						0.0		7.7353	35.275	0		7.8406			99.8998									
998.0		0.0198	3.674911		987.185						0.0		7.7265	35.2737	0		7.8318			99.9015									
999.0		0.0197	3.674548		988.166						0.0		7.722	35.2734	0		7.8275			99.9015									
1000.0		0.017	3.674201		989.155						0.0		7.7173	35.2734	0		7.8228			99.9015									
1001.0		0.018	3.673904		990.133						0.0		7.7137	35.2728	0		7.8193			99.9015									
1002.0		0.0195	3.671643		991.121						0.0		7.6916	35.2704	0		7.7972			99.9015									
1003.0		0.0193	3.668254		992.111						0.0		7.6588	35.2672	0		7.7642			99.9015									
1004.0		0.0178	3.666812		993.094						0.0		7.6451	35.2648	0		7.7505			99.9015									
1005.0		0.0189	3.665734		994.079						0.0		7.6341	35.2637	0		7.7396			99.904									
1006.0		0.0184	3.664201		995.065						0.0		7.6192	35.2618	0		7.7246			99.9044									
1007.0		0.0201	3.663039		996.061						0.0		7.6076	35.2605	0		7.713			99.8762									
1008.0		0.0192	3.6612		997.048						0.0		7.5894	35.2587	0		7.6949			99.8914									
1009.0		0.0181	3.66087		998.039						0.0		7.5854	35.2583	0		7.691			99.8876									
1010.0		0.02	3.659853		999.026						0.0		7.575	35.257	0		7.6805			99.9001									
1011.0		0.0171	3.659367		1000.007						0.0		7.5692	35.2561	0		7.6748			99.8944									
1012.0		0.0195	3.657848		1000.994						0.0		7.5539	35.2537	0		7.6595			99.9074									
1013.0		0.0234	3.657054		1001.993						0.0		7.5462	35.2517	0		7.6518			99.901									
1014.0		0.0227	3.656205		1002.983						0.0		7.5378	35.2505	0		7.6435			99.9164									
